"rt","responses","trial_type","trial_index","time_elapsed","internal_node_id","success","refreshrate","View Distance","Pix per cm","Scaling Factor","Scaled Size","view_history","response_type","key_press","avg_frame_time","center_x","center_y","slider_response","btn_response","presentationTime","stimulus","button_pressed","response"
"56773.225000011735","{}","survey-html-form","0","56776","0.0-0.0","","","","","","","","","","","","","","","","","",""
"","","fullscreen","1","61006","0.0-1.0","true","","","","","","","","","","","","","","","","",""
"46599.21499999473","{""ProlificID"":""5f3a7e7b3a55e009ff81175e"",""OS"":""windows"",""Browser"":""edge"",""Age"":""28"",""Sex"":""female""}","survey-text","2","107614","0.0-2.0","","16.666666666666668","","","","","","","","","","","","","","","",""
"","","virtual-chinrest","3","240576","0.0-3.0","","","486.86","346.675","0.7266666666666667","872","","","","","","","","","","","",""
"244393.3300000499","","instructions","4","484970","0.0-4.0","","","","","","","[{""page_index"":0,""viewing_time"":2628.8100000238046},{""page_index"":1,""viewing_time"":42389.65999998618},{""page_index"":2,""viewing_time"":3833.9300000225194},{""page_index"":3,""viewing_time"":27618.15499997465},{""page_index"":4,""viewing_time"":62631.59500004258},{""page_index"":5,""viewing_time"":48876.01499998709},{""page_index"":6,""viewing_time"":6167.16999997152},{""page_index"":7,""viewing_time"":38143.335000029765},{""page_index"":8,""viewing_time"":12103.884999989532}]","","","","","","","","","","",""
"null","","psychophysics","5","487691","0.0-5.0","","","","","","","","key","null","16.978293750000013","768","432","","","","","",""
"14541.064999997616","","image-slider-response","6","502237","0.0-6.0","","","","","","","","","","","","","27","Right","4","DotProbeStimuli_smallscale/Same_Elevation/meandist_40m/contrastbin_2/stimuli/Scene75_View17.jpg","",""
"null","","psychophysics","7","504956","0.0-7.0","","","","","","","","key","null","16.768549382716078","768","432","","","","","",""
"8265.254999976605","","image-slider-response","8","513224","0.0-8.0","","","","","","","","","","","","","41","Right","4","DotProbeStimuli_smallscale/Same_Elevation/meandist_10m/contrastbin_2/stimuli/Scene76_View11.jpg","",""
"null","","psychophysics","9","516010","0.0-9.0","","","","","","","","key","null","16.666688622754837","768","432","","","","","",""
"6485.639999969862","","image-slider-response","10","522499","0.0-10.0","","","","","","","","","","","","","67","Right","8","DotProbeStimuli_smallscale/Same_Elevation/meandist_40m/contrastbin_2/stimuli/Scene42_View12.jpg","",""
"null","","psychophysics","11","525285","0.0-11.0","","","","","","","","key","null","16.66629341317405","768","432","","","","","",""
"7522.12999999756","","image-slider-response","12","532812","0.0-12.0","","","","","","","","","","","","","50","Right","8","DotProbeStimuli_smallscale/Same_Elevation/meandist_10m/contrastbin_5/stimuli/Scene60_View15.jpg","",""
"null","","psychophysics","13","535530","0.0-13.0","","","","","","","","key","null","16.871703703703794","768","432","","","","","",""
"4995.790000015404","","image-slider-response","14","540531","0.0-14.0","","","","","","","","","","","","","41","Right","4","DotProbeStimuli_smallscale/Same_Elevation/meandist_10m/contrastbin_5/stimuli/Scene2_View10.jpg","",""
"null","","psychophysics","15","543317","0.0-15.0","","","","","","","","key","null","16.666988023952023","768","432","","","","","",""
"4632.465000031516","","image-slider-response","16","547955","0.0-16.0","","","","","","","","","","","","","49","Left","8","DotProbeStimuli_smallscale/Same_Elevation/meandist_10m/contrastbin_2/stimuli/Scene39_View5.jpg","",""
"null","","psychophysics","17","550674","0.0-17.0","","","","","","","","key","null","16.666251533741896","768","432","","","","","",""
"11368.149999994785","","image-slider-response","18","562046","0.0-18.0","","","","","","","","","","","","","23","Right","4","DotProbeStimuli_smallscale/Same_Elevation/meandist_40m/contrastbin_5/stimuli/Scene30_View8.jpg","",""
"null","","psychophysics","19","564832","0.0-19.0","","","","","","","","key","null","16.867469879518072","768","432","","","","","",""
"5445.884999993723","","image-slider-response","20","570282","0.0-20.0","","","","","","","","","","","","","12","Right","8","DotProbeStimuli_smallscale/Same_Elevation/meandist_40m/contrastbin_5/stimuli/Scene28_View12.jpg","",""
"3229.449999984354","","html-button-response","21","573512","0.0-21.0","","","","","","","","","","","","","","","","<div style='background-color: rgb(75,75,75); width:800px; color:white;'><div style='margin: 25px;'><br><p>You have now completed the practice trials. <br><br> If you are still uncertain about the task, note that you can re-read the task instructions at any point by clicking the 'help' button. <br><br> Press 'Start' to begin the experiment.</p> <br> </div></div>","0",""
"null","","psychophysics","22","576230","0.0-22.0","","","","","","","","key","null","16.872364197530707","768","432","","","","","",""
"35876.74999999581","","image-slider-response","23","612111","0.0-23.0","","","","","","","","","","","","","89","Left","4","DotProbeStimuli_smallscale/Same_Elevation/meandist_10m/contrastbin_3/stimuli/Scene3_View10.jpg","",""
"null","","psychophysics","24","614897","0.0-24.0","","","","","","","","key","null","16.96940606060565","768","432","","","","","",""
"6128.919999988284","","image-slider-response","25","621032","0.0-25.0","","","","","","","","","","","","","87","Left","8","DotProbeStimuli_smallscale/Same_Elevation/meandist_10m/contrastbin_4/stimuli/Scene67_View13.jpg","",""
"null","","psychophysics","26","623750","0.0-26.0","","","","","","","","key","null","16.66585889570572","768","432","","","","","",""
"21000.014999997802","","image-slider-response","27","644755","0.0-27.0","","","","","","","","","","","","","86","Right","4","DotProbeStimuli_smallscale/Same_Elevation/meandist_40m/contrastbin_1/stimuli/Scene32_View15.jpg","",""
"null","","psychophysics","28","647440","0.0-28.0","","","","","","","","key","null","16.666968944099274","768","432","","","","","",""
"4465.665000025183","","image-slider-response","29","651909","0.0-29.0","","","","","","","","","","","","","86","Right","2","DotProbeStimuli_smallscale/Same_Elevation/meandist_40m/contrastbin_2/stimuli/Scene59_View3.jpg","",""
"null","","psychophysics","30","654578","0.0-30.0","","","","","","","","key","null","16.7703962264152","768","432","","","","","",""
"4341.094999981578","","image-slider-response","31","658923","0.0-31.0","","","","","","","","","","","","","91","Left","1","DotProbeStimuli_smallscale/Same_Elevation/meandist_40m/contrastbin_4/stimuli/Scene54_View5.jpg","",""
"null","","psychophysics","32","661591","0.0-32.0","","","","","","","","key","null","16.665687500000057","768","432","","","","","",""
"7015.370000037365","","image-slider-response","33","668610","0.0-33.0","","","","","","","","","","","","","91","Left","1","DotProbeStimuli_smallscale/Same_Elevation/meandist_10m/contrastbin_5/stimuli/Scene2_View11.jpg","",""
"null","","psychophysics","34","671279","0.0-34.0","","","","","","","","key","null","16.771012578616446","768","432","","","","","",""
"5293.234999990091","","image-slider-response","35","676575","0.0-35.0","","","","","","","","","","","","","78","Left","1","DotProbeStimuli_smallscale/Same_Elevation/meandist_40m/contrastbin_2/stimuli/Scene1_View9.jpg","",""
"null","","psychophysics","36","679360","0.0-36.0","","","","","","","","key","null","16.766385542168507","768","432","","","","","",""
"6081.569999980275","","image-slider-response","37","685446","0.0-37.0","","","","","","","","","","","","","83","Left","8","DotProbeStimuli_smallscale/Same_Elevation/meandist_10m/contrastbin_1/stimuli/Scene29_View4.jpg","",""
"null","","psychophysics","38","688114","0.0-38.0","","","","","","","","key","null","16.666487499999494","768","432","","","","","",""
"7025.7199999759905","","image-slider-response","39","695145","0.0-39.0","","","","","","","","","","","","","86","Right","1","DotProbeStimuli_smallscale/Same_Elevation/meandist_10m/contrastbin_3/stimuli/Scene24_View11.jpg","",""
"null","","psychophysics","40","698063","0.0-40.0","","","","","","","","key","null","16.857632183908063","768","432","","","","","",""
"5226.330000034068","","image-slider-response","41","703294","0.0-41.0","","","","","","","","","","","","","88","Right","16","DotProbeStimuli_smallscale/Same_Elevation/meandist_40m/contrastbin_5/stimuli/Scene45_View11.jpg","",""
"null","","psychophysics","42","705980","0.0-42.0","","","","","","","","key","null","16.769639751552866","768","432","","","","","",""
"6658.174999989569","","image-slider-response","43","712643","0.0-43.0","","","","","","","","","","","","","74","Right","2","DotProbeStimuli_smallscale/Same_Elevation/meandist_20m/contrastbin_3/stimuli/Scene61_View15.jpg","",""
"null","","psychophysics","44","715429","0.0-44.0","","","","","","","","key","null","16.766807228915887","768","432","","","","","",""
"4084.495000017341","","image-slider-response","45","719517","0.0-45.0","","","","","","","","","","","","","81","Right","8","DotProbeStimuli_smallscale/Same_Elevation/meandist_10m/contrastbin_4/stimuli/Scene41_View14.jpg","",""
"null","","psychophysics","46","722186","0.0-46.0","","","","","","","","key","null","16.666150000000197","768","432","","","","","",""
"37664.41500000656","","image-slider-response","47","759854","0.0-47.0","","","","","","","","","","","","","82","Right","1","DotProbeStimuli_smallscale/Same_Elevation/meandist_40m/contrastbin_3/stimuli/Scene47_View16.jpg","",""
"null","","psychophysics","48","762573","0.0-48.0","","","","","","","","key","null","16.666239263803377","768","432","","","","","",""
"56509.41499997862","","image-slider-response","49","819085","0.0-49.0","","","","","","","","","","","","","76","Right","4","DotProbeStimuli_smallscale/Same_Elevation/meandist_20m/contrastbin_1/stimuli/Scene50_View4.jpg","",""
"null","","psychophysics","50","821771","0.0-50.0","","","","","","","","key","null","16.666012422360264","768","432","","","","","",""
"17172.75000002701","","image-slider-response","51","838947","0.0-51.0","","","","","","","","","","","","","51","Right","2","DotProbeStimuli_smallscale/Same_Elevation/meandist_40m/contrastbin_4/stimuli/Scene14_View18.jpg","",""
"3953.0999999842606","","html-button-response","52","842902","0.0-52.0","","","","","","","","","","","","","","","","<div style=""color:white;"">You have completed 10% of the experiment<br><br> Take a short break and press continue when you are ready <br><br><b>Reminder:</b> Ensure you look at the central cross until you make a response. <br><br></div>","0",""
"null","","psychophysics","53","845588","0.0-53.0","","","","","","","","key","null","16.875333333333057","768","432","","","","","",""
"6225.549999973737","","image-slider-response","54","851817","0.0-54.0","","","","","","","","","","","","","54","Right","2","DotProbeStimuli_smallscale/Same_Elevation/meandist_10m/contrastbin_2/stimuli/Scene38_View2.jpg","",""
"null","","psychophysics","55","854487","0.0-55.0","","","","","","","","key","null","16.66678749999992","768","432","","","","","",""
"5989.890000026207","","image-slider-response","56","860481","0.0-56.0","","","","","","","","","","","","","53","Left","1","DotProbeStimuli_smallscale/Same_Elevation/meandist_20m/contrastbin_2/stimuli/Scene55_View3.jpg","",""
"null","","psychophysics","57","863200","0.0-57.0","","","","","","","","key","null","16.665699386502833","768","432","","","","","",""
"6627.574999991339","","image-slider-response","58","869833","0.0-58.0","","","","","","","","","","","","","54","Right","4","DotProbeStimuli_smallscale/Same_Elevation/meandist_10m/contrastbin_5/stimuli/Scene61_View17_2.jpg","",""
"null","","psychophysics","59","872751","0.0-59.0","","","","","","","","key","null","16.6657085714283","768","432","","","","","",""
"4508.474999980535","","image-slider-response","60","877265","0.0-60.0","","","","","","","","","","","","","58","Right","16","DotProbeStimuli_smallscale/Same_Elevation/meandist_40m/contrastbin_3/stimuli/Scene72_View11.jpg","",""
"null","","psychophysics","61","880050","0.0-61.0","","","","","","","","key","null","16.667574850299317","768","432","","","","","",""
"9310.009999957401","","image-slider-response","62","889365","0.0-62.0","","","","","","","","","","","","","62","Left","8","DotProbeStimuli_smallscale/Same_Elevation/meandist_10m/contrastbin_5/stimuli/Scene61_View17.jpg","",""
"null","","psychophysics","63","892084","0.0-63.0","","","","","","","","key","null","16.66577300613466","768","432","","","","","",""
"7373.185000033118","","image-slider-response","64","899462","0.0-64.0","","","","","","","","","","","","","71","Right","4","DotProbeStimuli_smallscale/Same_Elevation/meandist_40m/contrastbin_5/stimuli/Scene74_View13.jpg","",""
"null","","psychophysics","65","902132","0.0-65.0","","","","","","","","key","null","16.667493749999995","768","432","","","","","",""
"4869.624999992084","","image-slider-response","66","907006","0.0-66.0","","","","","","","","","","","","","82","Right","1","DotProbeStimuli_smallscale/Same_Elevation/meandist_40m/contrastbin_1/stimuli/Scene71_View17.jpg","",""
"null","","psychophysics","67","909923","0.0-67.0","","","","","","","","key","null","16.666565714285575","768","432","","","","","",""
"5000.54999999702","","image-slider-response","68","914927","0.0-68.0","","","","","","","","","","","","","79","Right","16","DotProbeStimuli_smallscale/Same_Elevation/meandist_10m/contrastbin_4/stimuli/Scene58_View2.jpg","",""
"null","","psychophysics","69","917646","0.0-69.0","","","","","","","","key","null","16.87233333333315","768","432","","","","","",""
"4716.454999987036","","image-slider-response","70","922367","0.0-70.0","","","","","","","","","","","","","75","Right","4","DotProbeStimuli_smallscale/Same_Elevation/meandist_20m/contrastbin_4/stimuli/Scene57_View17.jpg","",""
"null","","psychophysics","71","925035","0.0-71.0","","","","","","","","key","null","16.666531250000116","768","432","","","","","",""
"5947.394999966491","","image-slider-response","72","930987","0.0-72.0","","","","","","","","","","","","","56","Left","1","DotProbeStimuli_smallscale/Same_Elevation/meandist_10m/contrastbin_1/stimuli/Scene5_View14.jpg","",""
"null","","psychophysics","73","933672","0.0-73.0","","","","","","","","key","null","16.665714285713882","768","432","","","","","",""
"4429.089999990538","","image-slider-response","74","938105","0.0-74.0","","","","","","","","","","","","","67","Right","2","DotProbeStimuli_smallscale/Same_Elevation/meandist_10m/contrastbin_3/stimuli/Scene64_View4.jpg","",""
"null","","psychophysics","75","941024","0.0-75.0","","","","","","","","key","null","16.66621714285708","768","432","","","","","",""
"4260.104999993928","","image-slider-response","76","945288","0.0-76.0","","","","","","","","","","","","","70","Right","16","DotProbeStimuli_smallscale/Same_Elevation/meandist_10m/contrastbin_2/stimuli/Scene64_View3.jpg","",""
"null","","psychophysics","77","948206","0.0-77.0","","","","","","","","key","null","16.666342857142777","768","432","","","","","",""
"4526.749999960884","","image-slider-response","78","952736","0.0-78.0","","","","","","","","","","","","","65","Right","16","DotProbeStimuli_smallscale/Same_Elevation/meandist_40m/contrastbin_3/stimuli/Scene25_View10.jpg","",""
"null","","psychophysics","79","955404","0.0-79.0","","","","","","","","key","null","16.66609374999971","768","432","","","","","",""
"5932.265000010375","","image-slider-response","80","961340","0.0-80.0","","","","","","","","","","","","","59","Left","1","DotProbeStimuli_smallscale/Same_Elevation/meandist_10m/contrastbin_4/stimuli/Scene36_View7.jpg","",""
"null","","psychophysics","81","964059","0.0-81.0","","","","","","","","key","null","16.667233128834123","768","432","","","","","",""
"5400.7199999759905","","image-slider-response","82","969463","0.0-82.0","","","","","","","","","","","","","58","Right","4","DotProbeStimuli_smallscale/Same_Elevation/meandist_20m/contrastbin_5/stimuli/Scene79_View5.jpg","",""
"2003.5550000029616","","html-button-response","83","971468","0.0-83.0","","","","","","","","","","","","","","","","<div style=""color:white;"">You have completed 20% of the experiment<br><br> Take a short break and press continue when you are ready <br><br><b>Reminder:</b> Ensure you look at the central cross until you make a response. <br><br></div>","0",""
"null","","psychophysics","84","974387","0.0-84.0","","","","","","","","key","null","16.666165714285203","768","432","","","","","",""
"4041.8700000154786","","image-slider-response","85","978432","0.0-85.0","","","","","","","","","","","","","63","Right","16","DotProbeStimuli_smallscale/Same_Elevation/meandist_40m/contrastbin_1/stimuli/Scene33_View11.jpg","",""
"null","","psychophysics","86","981217","0.0-86.0","","","","","","","","key","null","16.666089820359765","768","432","","","","","",""
"4698.429999989457","","image-slider-response","87","985921","0.0-87.0","","","","","","","","","","","","","61","Right","8","DotProbeStimuli_smallscale/Same_Elevation/meandist_10m/contrastbin_2/stimuli/Scene20_View10.jpg","",""
"null","","psychophysics","88","988606","0.0-88.0","","","","","","","","key","null","16.665708074534184","768","432","","","","","",""
"4375.570000032894","","image-slider-response","89","992985","0.0-89.0","","","","","","","","","","","","","53","Right","2","DotProbeStimuli_smallscale/Same_Elevation/meandist_20m/contrastbin_4/stimuli/Scene43_View14.jpg","",""
"null","","psychophysics","90","995654","0.0-90.0","","","","","","","","key","null","16.666718750000292","768","432","","","","","",""
"6245.21999998251","","image-slider-response","91","1001902","0.0-91.0","","","","","","","","","","","","","58","Left","1","DotProbeStimuli_smallscale/Same_Elevation/meandist_20m/contrastbin_5/stimuli/Scene76_View9.jpg","",""
"null","","psychophysics","92","1004687","0.0-92.0","","","","","","","","key","null","16.666071856287058","768","432","","","","","",""
"3921.139999991283","","image-slider-response","93","1008612","0.0-93.0","","","","","","","","","","","","","61","Left","8","DotProbeStimuli_smallscale/Same_Elevation/meandist_10m/contrastbin_3/stimuli/Scene31_View9.jpg","",""
"null","","psychophysics","94","1011530","0.0-94.0","","","","","","","","key","null","16.857068965517268","768","432","","","","","",""
"5170.98499997519","","image-slider-response","95","1016706","0.0-95.0","","","","","","","","","","","","","63","Right","16","DotProbeStimuli_smallscale/Same_Elevation/meandist_10m/contrastbin_4/stimuli/Scene61_View13.jpg","",""
"null","","psychophysics","96","1019624","0.0-96.0","","","","","","","","key","null","16.666274285714277","768","432","","","","","",""
"5017.749999999069","","image-slider-response","97","1024646","0.0-97.0","","","","","","","","","","","","","62","Right","16","DotProbeStimuli_smallscale/Same_Elevation/meandist_40m/contrastbin_4/stimuli/Scene77_View6.jpg","",""
"null","","psychophysics","98","1027363","0.0-98.0","","","","","","","","key","null","16.66650920245365","768","432","","","","","",""
"4056.960000016261","","image-slider-response","99","1031424","0.0-99.0","","","","","","","","","","","","","70","Right","4","DotProbeStimuli_smallscale/Same_Elevation/meandist_40m/contrastbin_5/stimuli/Scene2_View2.jpg","",""
"null","","psychophysics","100","1034109","0.0-100.0","","","","","","","","key","null","16.7706062499994","768","432","","","","","",""
"5432.475000037812","","image-slider-response","101","1039546","0.0-101.0","","","","","","","","","","","","","58","Left","2","DotProbeStimuli_smallscale/Same_Elevation/meandist_20m/contrastbin_5/stimuli/Scene12_View7.jpg","",""
"null","","psychophysics","102","1042465","0.0-102.0","","","","","","","","key","null","16.667337142857058","768","432","","","","","",""
"4318.329999980051","","image-slider-response","103","1046787","0.0-103.0","","","","","","","","","","","","","60","Right","16","DotProbeStimuli_smallscale/Same_Elevation/meandist_10m/contrastbin_1/stimuli/Scene13_View13.jpg","",""
"null","","psychophysics","104","1049473","0.0-104.0","","","","","","","","key","null","16.665795031055715","768","432","","","","","",""
"5895.229999965522","","image-slider-response","105","1055372","0.0-105.0","","","","","","","","","","","","","63","Left","2","DotProbeStimuli_smallscale/Same_Elevation/meandist_40m/contrastbin_1/stimuli/Scene16_View4.jpg","",""
"null","","psychophysics","106","1058157","0.0-106.0","","","","","","","","key","null","16.666592814371235","768","432","","","","","",""
"4291.459999978542","","image-slider-response","107","1062452","0.0-107.0","","","","","","","","","","","","","54","Right","8","DotProbeStimuli_smallscale/Same_Elevation/meandist_40m/contrastbin_3/stimuli/Scene37_View3.jpg","",""
"null","","psychophysics","108","1065138","0.0-108.0","","","","","","","","key","null","16.665913043478618","768","432","","","","","",""
"6371.489999990445","","image-slider-response","109","1071512","0.0-109.0","","","","","","","","","","","","","60","Right","2","DotProbeStimuli_smallscale/Same_Elevation/meandist_20m/contrastbin_5/stimuli/Scene74_View13.jpg","",""
"null","","psychophysics","110","1074297","0.0-110.0","","","","","","","","key","null","16.66582634730521","768","432","","","","","",""
"4685.519999999087","","image-slider-response","111","1078987","0.0-111.0","","","","","","","","","","","","","67","Right","8","DotProbeStimuli_smallscale/Same_Elevation/meandist_40m/contrastbin_4/stimuli/Scene63_View18.jpg","",""
"null","","psychophysics","112","1081673","0.0-112.0","","","","","","","","key","null","16.66642857142811","768","432","","","","","",""
"7827.7300000190735","","image-slider-response","113","1089505","0.0-113.0","","","","","","","","","","","","","60","Left","2","DotProbeStimuli_smallscale/Same_Elevation/meandist_40m/contrastbin_3/stimuli/Scene73_View9.jpg","",""
"1817.9200000013225","","html-button-response","114","1091324","0.0-114.0","","","","","","","","","","","","","","","","<div style=""color:white;"">You have completed 30% of the experiment<br><br> Take a short break and press continue when you are ready <br><br><b>Reminder:</b> Ensure you look at the central cross until you make a response. <br><br></div>","0",""
"null","","psychophysics","115","1094009","0.0-115.0","","","","","","","","key","null","16.769706250001036","768","432","","","","","",""
"4249.530000030063","","image-slider-response","116","1098262","0.0-116.0","","","","","","","","","","","","","67","Right","2","DotProbeStimuli_smallscale/Same_Elevation/meandist_40m/contrastbin_5/stimuli/Scene30_View8.jpg","",""
"null","","psychophysics","117","1101180","0.0-117.0","","","","","","","","key","null","16.66557714285728","768","432","","","","","",""
"3952.7499999967404","","image-slider-response","118","1105137","0.0-118.0","","","","","","","","","","","","","62","Right","16","DotProbeStimuli_smallscale/Same_Elevation/meandist_20m/contrastbin_2/stimuli/Scene28_View16.jpg","",""
"null","","psychophysics","119","1107805","0.0-119.0","","","","","","","","key","null","16.66603749999922","768","432","","","","","",""
"7383.079999999609","","image-slider-response","120","1115192","0.0-120.0","","","","","","","","","","","","","57","Right","1","DotProbeStimuli_smallscale/Same_Elevation/meandist_10m/contrastbin_1/stimuli/Scene39_View15.jpg","",""
"null","","psychophysics","121","1117860","0.0-121.0","","","","","","","","key","null","16.772477987421524","768","432","","","","","",""
"4057.6700000092387","","image-slider-response","122","1121922","0.0-122.0","","","","","","","","","","","","","58","Left","1","DotProbeStimuli_smallscale/Same_Elevation/meandist_20m/contrastbin_4/stimuli/Scene67_View12.jpg","",""
"null","","psychophysics","123","1124840","0.0-123.0","","","","","","","","key","null","16.666657142857357","768","432","","","","","",""
"4225.44500004733","","image-slider-response","124","1129070","0.0-124.0","","","","","","","","","","","","","64","Right","16","DotProbeStimuli_smallscale/Same_Elevation/meandist_10m/contrastbin_1/stimuli/Scene44_View1.jpg","",""
"null","","psychophysics","125","1131738","0.0-125.0","","","","","","","","key","null","16.665625","768","432","","","","","",""
"3922.4950000061654","","image-slider-response","126","1135664","0.0-126.0","","","","","","","","","","","","","63","Right","1","DotProbeStimuli_smallscale/Same_Elevation/meandist_10m/contrastbin_5/stimuli/Scene80_View8.jpg","",""
"null","","psychophysics","127","1138350","0.0-127.0","","","","","","","","key","null","16.666217391303977","768","432","","","","","",""
"3746.9050000072457","","image-slider-response","128","1142102","0.0-128.0","","","","","","","","","","","","","61","Left","2","DotProbeStimuli_smallscale/Same_Elevation/meandist_20m/contrastbin_1/stimuli/Scene21_View8.jpg","",""
"null","","psychophysics","129","1144888","0.0-129.0","","","","","","","","key","null","16.768819277107447","768","432","","","","","",""
"3823.9550000289455","","image-slider-response","130","1148715","0.0-130.0","","","","","","","","","","","","","66","Right","8","DotProbeStimuli_smallscale/Same_Elevation/meandist_20m/contrastbin_2/stimuli/Scene66_View10.jpg","",""
"null","","psychophysics","131","1151433","0.0-131.0","","","","","","","","key","null","16.666503067484033","768","432","","","","","",""
"3834.1549999895506","","image-slider-response","132","1155272","0.0-132.0","","","","","","","","","","","","","62","Right","4","DotProbeStimuli_smallscale/Same_Elevation/meandist_20m/contrastbin_5/stimuli/Scene35_View8.jpg","",""
"null","","psychophysics","133","1157942","0.0-133.0","","","","","","","","key","null","16.66598750000121","768","432","","","","","",""
"3327.609999978449","","image-slider-response","134","1161273","0.0-134.0","","","","","","","","","","","","","60","Left","1","DotProbeStimuli_smallscale/Same_Elevation/meandist_20m/contrastbin_5/stimuli/Scene77_View18.jpg","",""
"null","","psychophysics","135","1164192","0.0-135.0","","","","","","","","key","null","16.76186206896559","768","432","","","","","",""
"3816.2349999765866","","image-slider-response","136","1168012","0.0-136.0","","","","","","","","","","","","","58","Right","16","DotProbeStimuli_smallscale/Same_Elevation/meandist_10m/contrastbin_5/stimuli/Scene60_View16.jpg","",""
"null","","psychophysics","137","1170798","0.0-137.0","","","","","","","","key","null","16.667916167664067","768","432","","","","","",""
"3180.019999970682","","image-slider-response","138","1173983","0.0-138.0","","","","","","","","","","","","","64","Right","8","DotProbeStimuli_smallscale/Same_Elevation/meandist_20m/contrastbin_5/stimuli/Scene45_View6.jpg","",""
"null","","psychophysics","139","1176668","0.0-139.0","","","","","","","","key","null","16.667018633541183","768","432","","","","","",""
"4350.680000032298","","image-slider-response","140","1181023","0.0-140.0","","","","","","","","","","","","","58","Left","2","DotProbeStimuli_smallscale/Same_Elevation/meandist_40m/contrastbin_2/stimuli/Scene75_View17.jpg","",""
"null","","psychophysics","141","1183941","0.0-141.0","","","","","","","","key","null","16.666102857142686","768","432","","","","","",""
"3381.6899999510497","","image-slider-response","142","1187328","0.0-142.0","","","","","","","","","","","","","63","Right","16","DotProbeStimuli_smallscale/Same_Elevation/meandist_20m/contrastbin_3/stimuli/Scene73_View9.jpg","",""
"null","","psychophysics","143","1190246","0.0-143.0","","","","","","","","key","null","16.858499999999754","768","432","","","","","",""
"5610.350000031758","","image-slider-response","144","1195861","0.0-144.0","","","","","","","","","","","","","64","Right","16","DotProbeStimuli_smallscale/Same_Elevation/meandist_20m/contrastbin_1/stimuli/Scene15_View13.jpg","",""
"1727.820000029169","","html-button-response","145","1197590","0.0-145.0","","","","","","","","","","","","","","","","<div style=""color:white;"">You have completed 40% of the experiment<br><br> Take a short break and press continue when you are ready <br><br><b>Reminder:</b> Ensure you look at the central cross until you make a response. <br><br></div>","0",""
"null","","psychophysics","146","1200259","0.0-146.0","","","","","","","","key","null","16.770918238994447","768","432","","","","","",""
"3974.465000035707","","image-slider-response","147","1204238","0.0-147.0","","","","","","","","","","","","","57","Right","1","DotProbeStimuli_smallscale/Same_Elevation/meandist_40m/contrastbin_5/stimuli/Scene7_View13.jpg","",""
"null","","psychophysics","148","1206923","0.0-148.0","","","","","","","","key","null","16.665844720496178","768","432","","","","","",""
"5273.520000046119","","image-slider-response","149","1212200","0.0-149.0","","","","","","","","","","","","","57","Left","2","DotProbeStimuli_smallscale/Same_Elevation/meandist_40m/contrastbin_3/stimuli/Scene55_View2.jpg","",""
"null","","psychophysics","150","1215119","0.0-150.0","","","","","","","","key","null","16.666868571428846","768","432","","","","","",""
"3962.96999999322","","image-slider-response","151","1219086","0.0-151.0","","","","","","","","","","","","","57","Right","16","DotProbeStimuli_smallscale/Same_Elevation/meandist_20m/contrastbin_3/stimuli/Scene64_View3.jpg","",""
"null","","psychophysics","152","1221771","0.0-152.0","","","","","","","","key","null","16.666018633540684","768","432","","","","","",""
"3911.6250000079162","","image-slider-response","153","1225686","0.0-153.0","","","","","","","","","","","","","56","Left","2","DotProbeStimuli_smallscale/Same_Elevation/meandist_20m/contrastbin_2/stimuli/Scene54_View2.jpg","",""
"null","","psychophysics","154","1228472","0.0-154.0","","","","","","","","key","null","16.66583233532875","768","432","","","","","",""
"3878.4299999824725","","image-slider-response","155","1232354","0.0-155.0","","","","","","","","","","","","","63","Left","8","DotProbeStimuli_smallscale/Same_Elevation/meandist_20m/contrastbin_1/stimuli/Scene46_View2.jpg","",""
"null","","psychophysics","156","1235139","0.0-156.0","","","","","","","","key","null","16.666275449102734","768","432","","","","","",""
"3793.7849999871105","","image-slider-response","157","1238936","0.0-157.0","","","","","","","","","","","","","60","Right","8","DotProbeStimuli_smallscale/Same_Elevation/meandist_20m/contrastbin_2/stimuli/Scene42_View4.jpg","",""
"null","","psychophysics","158","1241723","0.0-158.0","","","","","","","","key","null","16.666077844310596","768","432","","","","","",""
"4526.429999968968","","image-slider-response","159","1246252","0.0-159.0","","","","","","","","","","","","","62","Right","8","DotProbeStimuli_smallscale/Same_Elevation/meandist_40m/contrastbin_1/stimuli/Scene63_View12.jpg","",""
"null","","psychophysics","160","1249038","0.0-160.0","","","","","","","","key","null","16.666802395209057","768","432","","","","","",""
"4145.905000041239","","image-slider-response","161","1253188","0.0-161.0","","","","","","","","","","","","","67","Left","8","DotProbeStimuli_smallscale/Same_Elevation/meandist_40m/contrastbin_5/stimuli/Scene65_View18.jpg","",""
"null","","psychophysics","162","1256106","0.0-162.0","","","","","","","","key","null","16.66649714285774","768","432","","","","","",""
"3679.130000004079","","image-slider-response","163","1259790","0.0-163.0","","","","","","","","","","","","","61","Right","16","DotProbeStimuli_smallscale/Same_Elevation/meandist_20m/contrastbin_4/stimuli/Scene18_View6.jpg","",""
"null","","psychophysics","164","1262458","0.0-164.0","","","","","","","","key","null","16.66744999999937","768","432","","","","","",""
"3824.8700000112876","","image-slider-response","165","1266287","0.0-165.0","","","","","","","","","","","","","58","Left","1","DotProbeStimuli_smallscale/Same_Elevation/meandist_20m/contrastbin_4/stimuli/Scene80_View10.jpg","",""
"null","","psychophysics","166","1269205","0.0-166.0","","","","","","","","key","null","16.665891428571193","768","432","","","","","",""
"4154.920000000857","","image-slider-response","167","1273378","0.0-167.0","","","","","","","","","","","","","56","Right","16","DotProbeStimuli_smallscale/Same_Elevation/meandist_10m/contrastbin_3/stimuli/Scene55_View7.jpg","",""
"null","","psychophysics","168","1276046","0.0-168.0","","","","","","","","key","null","16.876270440251876","768","432","","","","","",""
"3676.9050000002608","","image-slider-response","169","1279728","0.0-169.0","","","","","","","","","","","","","62","Left","1","DotProbeStimuli_smallscale/Same_Elevation/meandist_40m/contrastbin_4/stimuli/Scene5_View7.jpg","",""
"null","","psychophysics","170","1282413","0.0-170.0","","","","","","","","key","null","16.874162500000967","768","432","","","","","",""
"4256.959999969695","","image-slider-response","171","1286674","0.0-171.0","","","","","","","","","","","","","66","Left","2","DotProbeStimuli_smallscale/Same_Elevation/meandist_40m/contrastbin_4/stimuli/Scene65_View17.jpg","",""
"null","","psychophysics","172","1289359","0.0-172.0","","","","","","","","key","null","16.875188679245458","768","432","","","","","",""
"4014.720000035595","","image-slider-response","173","1293378","0.0-173.0","","","","","","","","","","","","","62","Right","2","DotProbeStimuli_smallscale/Same_Elevation/meandist_10m/contrastbin_2/stimuli/Scene38_View12.jpg","",""
"null","","psychophysics","174","1296163","0.0-174.0","","","","","","","","key","null","16.867367469879564","768","432","","","","","",""
"3150.5200000246987","","image-slider-response","175","1299319","0.0-175.0","","","","","","","","","","","","","59","Left","8","DotProbeStimuli_smallscale/Same_Elevation/meandist_40m/contrastbin_4/stimuli/Scene40_View8.jpg","",""
"2481.374999973923","","html-button-response","176","1301801","0.0-176.0","","","","","","","","","","","","","","","","<div style=""color:white;"">You have completed 50% of the experiment<br><br> Take a short break and press continue when you are ready <br><br><b>Reminder:</b> Ensure you look at the central cross until you make a response. <br><br></div>","0",""
"null","","psychophysics","177","1304488","0.0-177.0","","","","","","","","key","null","16.666273291924135","768","432","","","","","",""
"3705.0900000031106","","image-slider-response","178","1308196","0.0-178.0","","","","","","","","","","","","","59","Right","2","DotProbeStimuli_smallscale/Same_Elevation/meandist_10m/contrastbin_4/stimuli/Scene45_View18.jpg","",""
"null","","psychophysics","179","1310981","0.0-179.0","","","","","","","","key","null","16.766626506024153","768","432","","","","","",""
"4511.765000002924","","image-slider-response","180","1315498","0.0-180.0","","","","","","","","","","","","","56","Right","8","DotProbeStimuli_smallscale/Same_Elevation/meandist_20m/contrastbin_1/stimuli/Scene37_View12.jpg","",""
"null","","psychophysics","181","1318184","0.0-181.0","","","","","","","","key","null","16.666130434782445","768","432","","","","","",""
"4119.4200000027195","","image-slider-response","182","1322308","0.0-182.0","","","","","","","","","","","","","61","Left","2","DotProbeStimuli_smallscale/Same_Elevation/meandist_10m/contrastbin_1/stimuli/Scene56_View7.jpg","",""
"null","","psychophysics","183","1324976","0.0-183.0","","","","","","","","key","null","16.772000000000865","768","432","","","","","",""
"4022.789999959059","","image-slider-response","184","1329003","0.0-184.0","","","","","","","","","","","","","60","Right","1","DotProbeStimuli_smallscale/Same_Elevation/meandist_40m/contrastbin_3/stimuli/Scene23_View12.jpg","",""
"null","","psychophysics","185","1331688","0.0-185.0","","","","","","","","key","null","16.666291925466115","768","432","","","","","",""
"5179.844999976922","","image-slider-response","186","1336872","0.0-186.0","","","","","","","","","","","","","58","Left","2","DotProbeStimuli_smallscale/Same_Elevation/meandist_20m/contrastbin_2/stimuli/Scene58_View11.jpg","",""
"null","","psychophysics","187","1339540","0.0-187.0","","","","","","","","key","null","16.667131250000967","768","432","","","","","",""
"4710.224999987986","","image-slider-response","188","1344254","0.0-188.0","","","","","","","","","","","","","53","Left","1","DotProbeStimuli_smallscale/Same_Elevation/meandist_20m/contrastbin_2/stimuli/Scene54_View6.jpg","",""
"null","","psychophysics","189","1346973","0.0-189.0","","","","","","","","key","null","16.666042944784934","768","432","","","","","",""
"4344.734999991488","","image-slider-response","190","1351321","0.0-190.0","","","","","","","","","","","","","62","Right","4","DotProbeStimuli_smallscale/Same_Elevation/meandist_40m/contrastbin_2/stimuli/Scene4_View1.jpg","",""
"null","","psychophysics","191","1353989","0.0-191.0","","","","","","","","key","null","16.666168749998906","768","432","","","","","",""
"5347.239999973681","","image-slider-response","192","1359340","0.0-192.0","","","","","","","","","","","","","55","Left","1","DotProbeStimuli_smallscale/Same_Elevation/meandist_40m/contrastbin_1/stimuli/Scene43_View14.jpg","",""
"null","","psychophysics","193","1362058","0.0-193.0","","","","","","","","key","null","16.666601226993613","768","432","","","","","",""
"3525.809999962803","","image-slider-response","194","1365587","0.0-194.0","","","","","","","","","","","","","61","Right","4","DotProbeStimuli_smallscale/Same_Elevation/meandist_40m/contrastbin_4/stimuli/Scene9_View11.jpg","",""
"null","","psychophysics","195","1368305","0.0-195.0","","","","","","","","key","null","16.66620245398782","768","432","","","","","",""
"4228.624999988824","","image-slider-response","196","1372537","0.0-196.0","","","","","","","","","","","","","60","Left","4","DotProbeStimuli_smallscale/Same_Elevation/meandist_20m/contrastbin_1/stimuli/Scene69_View4.jpg","",""
"null","","psychophysics","197","1375256","0.0-197.0","","","","","","","","key","null","16.666472392638095","768","432","","","","","",""
"15031.119999999646","","image-slider-response","198","1390291","0.0-198.0","","","","","","","","","","","","","65","Right","4","DotProbeStimuli_smallscale/Same_Elevation/meandist_40m/contrastbin_1/stimuli/Scene72_View2.jpg","",""
"null","","psychophysics","199","1393076","0.0-199.0","","","","","","","","key","null","16.766861445783828","768","432","","","","","",""
"4377.154999994673","","image-slider-response","200","1397457","0.0-200.0","","","","","","","","","","","","","63","Left","8","DotProbeStimuli_smallscale/Same_Elevation/meandist_20m/contrastbin_5/stimuli/Scene60_View6.jpg","",""
"null","","psychophysics","201","1400242","0.0-201.0","","","","","","","","key","null","16.76757228915602","768","432","","","","","",""
"3578.960000013467","","image-slider-response","202","1403825","0.0-202.0","","","","","","","","","","","","","62","Right","8","DotProbeStimuli_smallscale/Same_Elevation/meandist_20m/contrastbin_3/stimuli/Scene6_View17.jpg","",""
"null","","psychophysics","203","1406511","0.0-203.0","","","","","","","","key","null","16.770362499999464","768","432","","","","","",""
"11962.250000040513","","image-slider-response","204","1418477","0.0-204.0","","","","","","","","","","","","","90","Left","2","DotProbeStimuli_smallscale/Same_Elevation/meandist_20m/contrastbin_1/stimuli/Scene52_View8.jpg","",""
"null","","psychophysics","205","1421196","0.0-205.0","","","","","","","","key","null","16.87204320987623","768","432","","","","","",""
"19831.56500000041","","image-slider-response","206","1441032","0.0-206.0","","","","","","","","","","","","","83","Right","4","DotProbeStimuli_smallscale/Same_Elevation/meandist_40m/contrastbin_3/stimuli/Scene22_View8.jpg","",""
"1707.6850000303239","","html-button-response","207","1442741","0.0-207.0","","","","","","","","","","","","","","","","<div style=""color:white;"">You have completed 60% of the experiment<br><br> Take a short break and press continue when you are ready <br><br><b>Reminder:</b> Ensure you look at the central cross until you make a response. <br><br></div>","0",""
"null","","psychophysics","208","1445526","0.0-208.0","","","","","","","","key","null","16.766198795180802","768","432","","","","","",""
"3773.8200000021607","","image-slider-response","209","1449304","0.0-209.0","","","","","","","","","","","","","89","Right","8","DotProbeStimuli_smallscale/Same_Elevation/meandist_40m/contrastbin_2/stimuli/Scene42_View12.jpg","",""
"null","","psychophysics","210","1452222","0.0-210.0","","","","","","","","key","null","16.666731428571843","768","432","","","","","",""
"3942.0049999607727","","image-slider-response","211","1456168","0.0-211.0","","","","","","","","","","","","","93","Left","16","DotProbeStimuli_smallscale/Same_Elevation/meandist_40m/contrastbin_4/stimuli/Scene28_View8.jpg","",""
"null","","psychophysics","212","1458887","0.0-212.0","","","","","","","","key","null","16.666343558282573","768","432","","","","","",""
"5095.604999980424","","image-slider-response","213","1463986","0.0-213.0","","","","","","","","","","","","","88","Right","4","DotProbeStimuli_smallscale/Same_Elevation/meandist_10m/contrastbin_5/stimuli/Scene55_View18.jpg","",""
"null","","psychophysics","214","1466671","0.0-214.0","","","","","","","","key","null","16.665739130435558","768","432","","","","","",""
"4729.0999999968335","","image-slider-response","215","1471403","0.0-215.0","","","","","","","","","","","","","87","Left","2","DotProbeStimuli_smallscale/Same_Elevation/meandist_10m/contrastbin_5/stimuli/Scene80_View7.jpg","",""
"null","","psychophysics","216","1474072","0.0-216.0","","","","","","","","key","null","16.666449999999895","768","432","","","","","",""
"3787.8899999777786","","image-slider-response","217","1477863","0.0-217.0","","","","","","","","","","","","","84","Right","1","DotProbeStimuli_smallscale/Same_Elevation/meandist_20m/contrastbin_3/stimuli/Scene47_View1.jpg","",""
"null","","psychophysics","218","1480649","0.0-218.0","","","","","","","","key","null","16.666395209580493","768","432","","","","","",""
"4284.220000030473","","image-slider-response","219","1484939","0.0-219.0","","","","","","","","","","","","","79","Right","8","DotProbeStimuli_smallscale/Same_Elevation/meandist_20m/contrastbin_3/stimuli/Scene24_View11.jpg","",""
"null","","psychophysics","220","1487624","0.0-220.0","","","","","","","","key","null","16.666782608695375","768","432","","","","","",""
"3492.0550000388175","","image-slider-response","221","1491120","0.0-221.0","","","","","","","","","","","","","86","Right","2","DotProbeStimuli_smallscale/Same_Elevation/meandist_10m/contrastbin_3/stimuli/Scene38_View1.jpg","",""
"null","","psychophysics","222","1493789","0.0-222.0","","","","","","","","key","null","16.66662500000093","768","432","","","","","",""
"5139.999999955762","","image-slider-response","223","1498932","0.0-223.0","","","","","","","","","","","","","82","Right","1","DotProbeStimuli_smallscale/Same_Elevation/meandist_10m/contrastbin_2/stimuli/Scene4_View1.jpg","",""
"null","","psychophysics","224","1501851","0.0-224.0","","","","","","","","key","null","16.66620571428511","768","432","","","","","",""
"3449.3449999717996","","image-slider-response","225","1505304","0.0-225.0","","","","","","","","","","","","","88","Left","16","DotProbeStimuli_smallscale/Same_Elevation/meandist_10m/contrastbin_3/stimuli/Scene78_View6.jpg","",""
"null","","psychophysics","226","1507973","0.0-226.0","","","","","","","","key","null","16.66612499999901","768","432","","","","","",""
"6154.08499998739","","image-slider-response","227","1514130","0.0-227.0","","","","","","","","","","","","","82","Right","1","DotProbeStimuli_smallscale/Same_Elevation/meandist_10m/contrastbin_2/stimuli/Scene41_View8.jpg","",""
"null","","psychophysics","228","1516815","0.0-228.0","","","","","","","","key","null","16.66613664596359","768","432","","","","","",""
"4589.5549999549985","","image-slider-response","229","1521410","0.0-229.0","","","","","","","","","","","","","84","Left","2","DotProbeStimuli_smallscale/Same_Elevation/meandist_10m/contrastbin_4/stimuli/Scene38_View16.jpg","",""
"null","","psychophysics","230","1524196","0.0-230.0","","","","","","","","key","null","16.86697590361484","768","432","","","","","",""
"3538.349999987986","","image-slider-response","231","1527739","0.0-231.0","","","","","","","","","","","","","83","Right","8","DotProbeStimuli_smallscale/Same_Elevation/meandist_20m/contrastbin_4/stimuli/Scene68_View18.jpg","",""
"null","","psychophysics","232","1530458","0.0-232.0","","","","","","","","key","null","16.667650306748765","768","432","","","","","",""
"3736.2900000298396","","image-slider-response","233","1534198","0.0-233.0","","","","","","","","","","","","","91","Right","4","DotProbeStimuli_smallscale/Same_Elevation/meandist_10m/contrastbin_2/stimuli/Scene39_View5.jpg","",""
"null","","psychophysics","234","1536867","0.0-234.0","","","","","","","","key","null","16.772459119496833","768","432","","","","","",""
"4019.129999971483","","image-slider-response","235","1540891","0.0-235.0","","","","","","","","","","","","","88","Left","1","DotProbeStimuli_smallscale/Same_Elevation/meandist_40m/contrastbin_2/stimuli/Scene70_View2.jpg","",""
"null","","psychophysics","236","1543809","0.0-236.0","","","","","","","","key","null","16.763247126436408","768","432","","","","","",""
"4165.449999971315","","image-slider-response","237","1547978","0.0-237.0","","","","","","","","","","","","","85","Right","16","DotProbeStimuli_smallscale/Same_Elevation/meandist_40m/contrastbin_1/stimuli/Scene36_View8.jpg","",""
"1893.6300000059418","","html-button-response","238","1549873","0.0-238.0","","","","","","","","","","","","","","","","<div style=""color:white;"">You have completed 70% of the experiment<br><br> Take a short break and press continue when you are ready <br><br><b>Reminder:</b> Ensure you look at the central cross until you make a response. <br><br></div>","0",""
"null","","psychophysics","239","1552791","0.0-239.0","","","","","","","","key","null","16.762040229884896","768","432","","","","","",""
"3794.6899999515153","","image-slider-response","240","1556590","0.0-240.0","","","","","","","","","","","","","78","Right","16","DotProbeStimuli_smallscale/Same_Elevation/meandist_20m/contrastbin_4/stimuli/Scene30_View8.jpg","",""
"null","","psychophysics","241","1559258","0.0-241.0","","","","","","","","key","null","16.77096855345932","768","432","","","","","",""
"3925.5550000234507","","image-slider-response","242","1563201","0.0-242.0","","","","","","","","","","","","","82","Left","1","DotProbeStimuli_smallscale/Same_Elevation/meandist_20m/contrastbin_1/stimuli/Scene8_View5.jpg","",""
"null","","psychophysics","243","1565921","0.0-243.0","","","","","","","","key","null","16.666398773006982","768","432","","","","","",""
"4915.225000004284","","image-slider-response","244","1570839","0.0-244.0","","","","","","","","","","","","","73","Right","4","DotProbeStimuli_smallscale/Same_Elevation/meandist_20m/contrastbin_3/stimuli/Scene15_View6.jpg","",""
"null","","psychophysics","245","1573758","0.0-245.0","","","","","","","","key","null","16.761821839080632","768","432","","","","","",""
"4270.129999960773","","image-slider-response","246","1578032","0.0-246.0","","","","","","","","","","","","","82","Right","16","DotProbeStimuli_smallscale/Same_Elevation/meandist_40m/contrastbin_2/stimuli/Scene73_View15.jpg","",""
"null","","psychophysics","247","1580717","0.0-247.0","","","","","","","","key","null","16.665993788820455","768","432","","","","","",""
"4409.754999971483","","image-slider-response","248","1585131","0.0-248.0","","","","","","","","","","","","","81","Right","2","DotProbeStimuli_smallscale/Same_Elevation/meandist_10m/contrastbin_1/stimuli/Scene41_View6.jpg","",""
"null","","psychophysics","249","1587850","0.0-249.0","","","","","","","","key","null","16.666282208589266","768","432","","","","","",""
"3615.7249999814667","","image-slider-response","250","1591470","0.0-250.0","","","","","","","","","","","","","81","Left","4","DotProbeStimuli_smallscale/Same_Elevation/meandist_40m/contrastbin_4/stimuli/Scene43_View12.jpg","",""
"null","","psychophysics","251","1594139","0.0-251.0","","","","","","","","key","null","16.665868750000662","768","432","","","","","",""
"4226.640000008047","","image-slider-response","252","1598369","0.0-252.0","","","","","","","","","","","","","76","Left","1","DotProbeStimuli_smallscale/Same_Elevation/meandist_10m/contrastbin_3/stimuli/Scene7_View15.jpg","",""
"null","","psychophysics","253","1601087","0.0-253.0","","","","","","","","key","null","16.665202453988176","768","432","","","","","",""
"6144.960000005085","","image-slider-response","254","1607236","0.0-254.0","","","","","","","","","","","","","78","Right","4","DotProbeStimuli_smallscale/Same_Elevation/meandist_20m/contrastbin_4/stimuli/Scene15_View4.jpg","",""
"null","","psychophysics","255","1609921","0.0-255.0","","","","","","","","key","null","16.66649068322941","768","432","","","","","",""
"3564.230000018142","","image-slider-response","256","1613490","0.0-256.0","","","","","","","","","","","","","84","Left","2","DotProbeStimuli_smallscale/Same_Elevation/meandist_40m/contrastbin_5/stimuli/Scene28_View12.jpg","",""
"null","","psychophysics","257","1616275","0.0-257.0","","","","","","","","key","null","16.766849397590484","768","432","","","","","",""
"4276.8100000103","","image-slider-response","258","1620555","0.0-258.0","","","","","","","","","","","","","85","Right","8","DotProbeStimuli_smallscale/Same_Elevation/meandist_40m/contrastbin_3/stimuli/Scene70_View7.jpg","",""
"null","","psychophysics","259","1623340","0.0-259.0","","","","","","","","key","null","16.86910303030304","768","432","","","","","",""
"4780.9399999678135","","image-slider-response","260","1628125","0.0-260.0","","","","","","","","","","","","","85","Left","8","DotProbeStimuli_smallscale/Same_Elevation/meandist_10m/contrastbin_3/stimuli/Scene61_View9.jpg","",""
"null","","psychophysics","261","1630794","0.0-261.0","","","","","","","","key","null","16.771773584906022","768","432","","","","","",""
"4212.950000015553","","image-slider-response","262","1635012","0.0-262.0","","","","","","","","","","","","","85","Left","1","DotProbeStimuli_smallscale/Same_Elevation/meandist_20m/contrastbin_3/stimuli/Scene6_View17_2.jpg","",""
"null","","psychophysics","263","1637730","0.0-263.0","","","","","","","","key","null","16.666546012270636","768","432","","","","","",""
"3746.0900000296533","","image-slider-response","264","1641482","0.0-264.0","","","","","","","","","","","","","88","Left","4","DotProbeStimuli_smallscale/Same_Elevation/meandist_20m/contrastbin_2/stimuli/Scene6_View18.jpg","",""
"null","","psychophysics","265","1644400","0.0-265.0","","","","","","","","key","null","16.66640000000064","768","432","","","","","",""
"3502.7700000209734","","image-slider-response","266","1647908","0.0-266.0","","","","","","","","","","","","","82","Right","16","DotProbeStimuli_smallscale/Same_Elevation/meandist_20m/contrastbin_2/stimuli/Scene44_View13.jpg","",""
"null","","psychophysics","267","1650577","0.0-267.0","","","","","","","","key","null","16.770773584904653","768","432","","","","","",""
"3776.789999974426","","image-slider-response","268","1654357","0.0-268.0","","","","","","","","","","","","","77","Left","1","DotProbeStimuli_smallscale/Same_Elevation/meandist_20m/contrastbin_1/stimuli/Scene10_View8.jpg","",""
"1611.0099999932572","","html-button-response","269","1655969","0.0-269.0","","","","","","","","","","","","","","","","<div style=""color:white;"">You have completed 80% of the experiment<br><br> Take a short break and press continue when you are ready <br><br><b>Reminder:</b> Ensure you look at the central cross until you make a response. <br><br></div>","0",""
"null","","psychophysics","270","1658688","0.0-270.0","","","","","","","","key","null","16.666705521473524","768","432","","","","","",""
"4875.509999983478","","image-slider-response","271","1663568","0.0-271.0","","","","","","","","","","","","","61","Left","4","DotProbeStimuli_smallscale/Same_Elevation/meandist_10m/contrastbin_3/stimuli/Scene47_View13.jpg","",""
"null","","psychophysics","272","1666353","0.0-272.0","","","","","","","","key","null","16.666790419161977","768","432","","","","","",""
"3806.4700000104494","","image-slider-response","273","1670163","0.0-273.0","","","","","","","","","","","","","88","Right","8","DotProbeStimuli_smallscale/Same_Elevation/meandist_40m/contrastbin_2/stimuli/Scene51_View3.jpg","",""
"null","","psychophysics","274","1673081","0.0-274.0","","","","","","","","key","null","16.665777142856804","768","432","","","","","",""
"3830.405000015162","","image-slider-response","275","1676917","0.0-275.0","","","","","","","","","","","","","75","Left","16","DotProbeStimuli_smallscale/Same_Elevation/meandist_10m/contrastbin_2/stimuli/Scene76_View11.jpg","",""
"null","","psychophysics","276","1679835","0.0-276.0","","","","","","","","key","null","16.665622857143838","768","432","","","","","",""
"4045.810000039637","","image-slider-response","277","1683885","0.0-277.0","","","","","","","","","","","","","80","Left","16","DotProbeStimuli_smallscale/Same_Elevation/meandist_40m/contrastbin_2/stimuli/Scene59_View10.jpg","",""
"null","","psychophysics","278","1686803","0.0-278.0","","","","","","","","key","null","16.668725714285724","768","432","","","","","",""
"3992.755000013858","","image-slider-response","279","1690799","0.0-279.0","","","","","","","","","","","","","75","Right","16","DotProbeStimuli_smallscale/Same_Elevation/meandist_10m/contrastbin_5/stimuli/Scene2_View10.jpg","",""
"null","","psychophysics","280","1693585","0.0-280.0","","","","","","","","key","null","16.666329341317375","768","432","","","","","",""
"4165.405000036117","","image-slider-response","281","1697755","0.0-281.0","","","","","","","","","","","","","89","Left","8","DotProbeStimuli_smallscale/Same_Elevation/meandist_40m/contrastbin_5/stimuli/Scene58_View12.jpg","",""
"null","","psychophysics","282","1700540","0.0-282.0","","","","","","","","key","null","16.665892215568327","768","432","","","","","",""
"3579.12499998929","","image-slider-response","283","1704123","0.0-283.0","","","","","","","","","","","","","89","Left","8","DotProbeStimuli_smallscale/Same_Elevation/meandist_10m/contrastbin_5/stimuli/Scene61_View16.jpg","",""
"null","","psychophysics","284","1706841","0.0-284.0","","","","","","","","key","null","16.666546012269208","768","432","","","","","",""
"6100.619999982882","","image-slider-response","285","1712946","0.0-285.0","","","","","","","","","","","","","88","Left","4","DotProbeStimuli_smallscale/Same_Elevation/meandist_40m/contrastbin_3/stimuli/Scene73_View10.jpg","",""
"null","","psychophysics","286","1715617","0.0-286.0","","","","","","","","key","null","16.666624999999478","768","432","","","","","",""
"4702.549999987241","","image-slider-response","287","1720324","0.0-287.0","","","","","","","","","","","","","76","Right","1","DotProbeStimuli_smallscale/Same_Elevation/meandist_40m/contrastbin_5/stimuli/Scene58_View11.jpg","",""
"null","","psychophysics","288","1723042","0.0-288.0","","","","","","","","key","null","16.769697530864864","768","432","","","","","",""
"3749.764999956824","","image-slider-response","289","1726796","0.0-289.0","","","","","","","","","","","","","85","Left","4","DotProbeStimuli_smallscale/Same_Elevation/meandist_20m/contrastbin_3/stimuli/Scene25_View3.jpg","",""
"null","","psychophysics","290","1729514","0.0-290.0","","","","","","","","key","null","16.666441717792154","768","432","","","","","",""
"3796.0750000202097","","image-slider-response","291","1733317","0.0-291.0","","","","","","","","","","","","","88","Right","4","DotProbeStimuli_smallscale/Same_Elevation/meandist_40m/contrastbin_2/stimuli/Scene16_View5.jpg","",""
"null","","psychophysics","292","1736036","0.0-292.0","","","","","","","","key","null","16.66551533742362","768","432","","","","","",""
"3655.8650000370108","","image-slider-response","293","1739695","0.0-293.0","","","","","","","","","","","","","85","Right","4","DotProbeStimuli_smallscale/Same_Elevation/meandist_10m/contrastbin_4/stimuli/Scene22_View1.jpg","",""
"null","","psychophysics","294","1742413","0.0-294.0","","","","","","","","key","null","16.666699386503193","768","432","","","","","",""
"3559.204999997746","","image-slider-response","295","1745977","0.0-295.0","","","","","","","","","","","","","90","Left","4","DotProbeStimuli_smallscale/Same_Elevation/meandist_20m/contrastbin_2/stimuli/Scene59_View5.jpg","",""
"null","","psychophysics","296","1748662","0.0-296.0","","","","","","","","key","null","16.874693750000734","768","432","","","","","",""
"4840.75999999186","","image-slider-response","297","1753507","0.0-297.0","","","","","","","","","","","","","87","Right","2","DotProbeStimuli_smallscale/Same_Elevation/meandist_40m/contrastbin_1/stimuli/Scene19_View5.jpg","",""
"null","","psychophysics","298","1756293","0.0-298.0","","","","","","","","key","null","16.76566265060157","768","432","","","","","",""
"4322.229999990668","","image-slider-response","299","1760619","0.0-299.0","","","","","","","","","","","","","86","Left","8","DotProbeStimuli_smallscale/Same_Elevation/meandist_10m/contrastbin_1/stimuli/Scene48_View2.jpg","",""
"1632.4550000135787","","html-button-response","300","1762253","0.0-300.0","","","","","","","","","","","","","","","","<div style=""color:white;"">You have completed 90% of the experiment<br><br> Take a short break and press continue when you are ready <br><br><b>Reminder:</b> Ensure you look at the central cross until you make a response. <br><br></div>","0",""
"null","","psychophysics","301","1765038","0.0-301.0","","","","","","","","key","null","16.666940119761616","768","432","","","","","",""
"3826.515000022482","","image-slider-response","302","1768868","0.0-302.0","","","","","","","","","","","","","89","Right","8","DotProbeStimuli_smallscale/Same_Elevation/meandist_10m/contrastbin_2/stimuli/Scene78_View14.jpg","",""
"null","","psychophysics","303","1771586","0.0-303.0","","","","","","","","key","null","16.66538036809777","768","432","","","","","",""
"3918.0000000051223","","image-slider-response","304","1775508","0.0-304.0","","","","","","","","","","","","","84","Left","4","DotProbeStimuli_smallscale/Same_Elevation/meandist_10m/contrastbin_4/stimuli/Scene55_View17.jpg","",""
"null","","psychophysics","305","1778427","0.0-305.0","","","","","","","","key","null","16.762367816091963","768","432","","","","","",""
"3647.2799999755807","","image-slider-response","306","1782078","0.0-306.0","","","","","","","","","","","","","89","Right","16","DotProbeStimuli_smallscale/Same_Elevation/meandist_20m/contrastbin_1/stimuli/Scene20_View7.jpg","",""
"null","","psychophysics","307","1784863","0.0-307.0","","","","","","","","key","null","16.666389221556955","768","432","","","","","",""
"5838.640000030864","","image-slider-response","308","1790706","0.0-308.0","","","","","","","","","","","","","78","Left","8","DotProbeStimuli_smallscale/Same_Elevation/meandist_40m/contrastbin_1/stimuli/Scene46_View18.jpg","",""
"null","","psychophysics","309","1793625","0.0-309.0","","","","","","","","key","null","16.85842774566559","768","432","","","","","",""
"4257.599999953527","","image-slider-response","310","1797887","0.0-310.0","","","","","","","","","","","","","85","Right","16","DotProbeStimuli_smallscale/Same_Elevation/meandist_20m/contrastbin_5/stimuli/Scene73_View10.jpg","",""
"null","","psychophysics","311","1800573","0.0-311.0","","","","","","","","key","null","16.66587577639755","768","432","","","","","",""
"4166.139999986626","","image-slider-response","312","1804742","0.0-312.0","","","","","","","","","","","","","85","Right","2","DotProbeStimuli_smallscale/Same_Elevation/meandist_10m/contrastbin_5/stimuli/Scene60_View15.jpg","",""
"null","","psychophysics","313","1807662","0.0-313.0","","","","","","","","key","null","16.761360000000735","768","432","","","","","",""
"3521.50500001153","","image-slider-response","314","1811188","0.0-314.0","","","","","","","","","","","","","84","Right","16","DotProbeStimuli_smallscale/Same_Elevation/meandist_20m/contrastbin_5/stimuli/Scene19_View4.jpg","",""
"null","","psychophysics","315","1813907","0.0-315.0","","","","","","","","key","null","16.666889570552023","768","432","","","","","",""
"3994.810000003781","","image-slider-response","316","1817906","0.0-316.0","","","","","","","","","","","","","90","Right","4","DotProbeStimuli_smallscale/Same_Elevation/meandist_10m/contrastbin_2/stimuli/Scene60_View13.jpg","",""
"null","","psychophysics","317","1820625","0.0-317.0","","","","","","","","key","null","16.76996296296402","768","432","","","","","",""
"3950.154999969527","","image-slider-response","318","1824580","0.0-318.0","","","","","","","","","","","","","88","Left","4","DotProbeStimuli_smallscale/Same_Elevation/meandist_10m/contrastbin_1/stimuli/Scene49_View10.jpg","",""
"null","","psychophysics","319","1827250","0.0-319.0","","","","","","","","key","null","16.666950000000362","768","432","","","","","",""
"3862.4499999568798","","image-slider-response","320","1831117","0.0-320.0","","","","","","","","","","","","","85","Right","1","DotProbeStimuli_smallscale/Same_Elevation/meandist_10m/contrastbin_4/stimuli/Scene15_View13.jpg","",""
"null","","psychophysics","321","1833903","0.0-321.0","","","","","","","","key","null","16.666173652694198","768","432","","","","","",""
"4342.969999997877","","image-slider-response","322","1838249","0.0-322.0","","","","","","","","","","","","","91","Left","8","DotProbeStimuli_smallscale/Same_Elevation/meandist_20m/contrastbin_4/stimuli/Scene79_View4.jpg","",""
"null","","psychophysics","323","1840934","0.0-323.0","","","","","","","","key","null","16.66645962732948","768","432","","","","","",""
"3775.320000015199","","image-slider-response","324","1844714","0.0-324.0","","","","","","","","","","","","","84","Right","2","DotProbeStimuli_smallscale/Same_Elevation/meandist_20m/contrastbin_3/stimuli/Scene5_View15.jpg","",""
"null","","psychophysics","325","1847432","0.0-325.0","","","","","","","","key","null","16.667122699386024","768","432","","","","","",""
"3873.695000016596","","image-slider-response","326","1851311","0.0-326.0","","","","","","","","","","","","","96","Left","4","DotProbeStimuli_smallscale/Same_Elevation/meandist_10m/contrastbin_1/stimuli/Scene34_View2.jpg","",""
"null","","psychophysics","327","1853996","0.0-327.0","","","","","","","","key","null","16.66601242236099","768","432","","","","","",""
"4012.3949999688193","","image-slider-response","328","1858013","0.0-328.0","","","","","","","","","","","","","83","Left","2","DotProbeStimuli_smallscale/Same_Elevation/meandist_20m/contrastbin_4/stimuli/Scene17_View6.jpg","",""
"null","","psychophysics","329","1860932","0.0-329.0","","","","","","","","key","null","16.66706857142837","768","432","","","","","",""
"4029.6650000382215","","image-slider-response","330","1864967","0.0-330.0","","","","","","","","","","","","","86","Right","16","DotProbeStimuli_smallscale/Same_Elevation/meandist_40m/contrastbin_5/stimuli/Scene4_View9.jpg","",""
"12942.30500003323","","html-slider-response","331","1877910","0.0-331.0","","","","","","","","","","","","","","","","<br><p>On what proportion of trials do you think you looked at the central (black) cross while the target image was presented? Note that this will <i>not</i> affect your payment, so we ask that you try to be as accurate as possible.</p><br>","","100"
"19888.524999958463","","html-button-response","332","1897800","0.0-332.0","","","","","","","","","","","","","","","","<div style='background-color: white; width:800px; margin: 25px; text-align: left; padding:5%; font-size:80%'>
		    				Thank you for participating in this experiment.<br><br>
		    				<b>Do <i>not</i> close this window before pressing the 'Submit' button below.</b><br><br>
		    				The aim of this research was to investigate the speed at which humans estimate the distance of objects/surfaces in real-world scenes. We manipulated image viewing time in order to determine the speed at which humans (i) judge which is farther/closer, and (ii) judge the relative distance of two locations. We also varied whether one of the locations was higher in the image than the other, to look at whether humans use height as a source of information for judging depth. Your participation in this research will help inform current understandings of the time-course of depth-estimation in real-world scenes. We know that an understanding of the relative depth of objects/surfaces is critical for a number of tasks including interacting with objects on our desk, judging walking distances, and navigating through real-world environments. However, exactly how humans do this is unclear  which is something we aim to address with this study. <br><br> If you have any further questions about the research, please contact Matthew Anderson at matt.anderson@soton.ac.uk. <br><br> If you have questions about your rights as a participant in this research, or if you feel that you have been placed at risk, you may contact the Chair of the Ethics Committee, Psychology, University of Southampton, Southampton, SO17 1BJ. Phone: +44 (0)23 8059 3856, email fshs-rso@soton.ac.uk</div>","0",""

"rt","responses","trial_type","trial_index","time_elapsed","internal_node_id","success","refreshrate","View Distance","Pix per cm","Scaling Factor","Scaled Size","view_history","response_type","key_press","avg_frame_time","center_x","center_y","slider_response","btn_response","presentationTime","stimulus","button_pressed","response"
"52104.87999999896","{}","survey-html-form","0","52110","0.0-0.0","","","","","","","","","","","","","","","","","",""
"","","fullscreen","1","57554","0.0-1.0","true","","","","","","","","","","","","","","","","",""
"110452.91500000167","{""ProlificID"":""5f2aa04952f67f2f20d13b0e"",""OS"":""MacOS"",""Browser"":""Chrome"",""Age"":""38"",""Sex"":""Female""}","survey-text","2","168020","0.0-2.0","","18.18181818181818","","","","","","","","","","","","","","","",""
"","","virtual-chinrest","3","354998","0.0-3.0","","","306.9","389.109","0.5141666666666667","617","","","","","","","","","","","",""
"273901.43500000704","","instructions","4","628908","0.0-4.0","","","","","","","[{""page_index"":0,""viewing_time"":1905.9500000003027},{""page_index"":1,""viewing_time"":73495.82500000542},{""page_index"":2,""viewing_time"":32542.48999999254},{""page_index"":3,""viewing_time"":30664.785000000848},{""page_index"":4,""viewing_time"":32286.925000007614},{""page_index"":5,""viewing_time"":30611.294999995152},{""page_index"":6,""viewing_time"":8017.1100000006845},{""page_index"":7,""viewing_time"":53268.880000003264},{""page_index"":8,""viewing_time"":11107.495000003837}]","","","","","","","","","","",""
"null","","psychophysics","5","631695","0.0-5.0","","","","","","","","key","null","16.79166265060292","640","400","","","","","",""
"14288.514999992913","","image-slider-response","6","645989","0.0-6.0","","","","","","","","","","","","","65","Left","7","DotProbeStimuli_smallscale/Same_Elevation/meandist_10m/contrastbin_5/stimuli/Scene61_View17_2.jpg","",""
"null","","psychophysics","7","648773","0.0-7.0","","","","","","","","key","null","16.673999999999765","640","400","","","","","",""
"13812.52000000677","","image-slider-response","8","662590","0.0-8.0","","","","","","","","","","","","","50","Left","7","DotProbeStimuli_smallscale/Same_Elevation/meandist_40m/contrastbin_5/stimuli/Scene65_View18.jpg","",""
"null","","psychophysics","9","665320","0.0-9.0","","","","","","","","key","null","16.717408536584827","640","400","","","","","",""
"9754.920000006678","","image-slider-response","10","675079","0.0-10.0","","","","","","","","","","","","","60","Left","4","DotProbeStimuli_smallscale/Same_Elevation/meandist_40m/contrastbin_5/stimuli/Scene4_View9.jpg","",""
"null","","psychophysics","11","677808","0.0-11.0","","","","","","","","key","null","16.673999999999783","640","400","","","","","",""
"9904.360000000452","","image-slider-response","12","687717","0.0-12.0","","","","","","","","","","","","","25","Right","4","DotProbeStimuli_smallscale/Same_Elevation/meandist_40m/contrastbin_2/stimuli/Scene1_View9.jpg","",""
"null","","psychophysics","13","690501","0.0-13.0","","","","","","","","key","null","16.673999999999765","640","400","","","","","",""
"7746.6350000031525","","image-slider-response","14","698253","0.0-14.0","","","","","","","","","","","","","50","Right","7","DotProbeStimuli_smallscale/Same_Elevation/meandist_40m/contrastbin_2/stimuli/Scene16_View5.jpg","",""
"null","","psychophysics","15","700983","0.0-15.0","","","","","","","","key","null","16.67400000000049","640","400","","","","","",""
"8722.215000001597","","image-slider-response","16","709713","0.0-16.0","","","","","","","","","","","","","29","Right","4","DotProbeStimuli_smallscale/Same_Elevation/meandist_10m/contrastbin_5/stimuli/Scene2_View11.jpg","",""
"null","","psychophysics","17","712498","0.0-17.0","","","","","","","","key","null","16.67400000000046","640","400","","","","","",""
"10330.100000006496","","image-slider-response","18","722834","0.0-18.0","","","","","","","","","","","","","50","Right","7","DotProbeStimuli_smallscale/Same_Elevation/meandist_10m/contrastbin_2/stimuli/Scene41_View8.jpg","",""
"null","","psychophysics","19","725564","0.0-19.0","","","","","","","","key","null","16.669914634146576","640","400","","","","","",""
"9259.990000005928","","image-slider-response","20","734829","0.0-20.0","","","","","","","","","","","","","49","Right","4","DotProbeStimuli_smallscale/Same_Elevation/meandist_10m/contrastbin_2/stimuli/Scene39_View5.jpg","",""
"3634.1749999992317","","html-button-response","21","738465","0.0-21.0","","","","","","","","","","","","","","","","<div style='background-color: rgb(75,75,75); width:800px; color:white;'><div style='margin: 25px;'><br><p>You have now completed the practice trials. <br><br> If you are still uncertain about the task, note that you can re-read the task instructions at any point by clicking the 'help' button. <br><br> Press 'Start' to begin the experiment.</p> <br> </div></div>","0",""
"null","","psychophysics","22","741140","0.0-22.0","","","","","","","","key","null","16.674000000000525","640","400","","","","","",""
"9593.77000000677","","image-slider-response","23","750737","0.0-23.0","","","","","","","","","","","","","25","Right","1","DotProbeStimuli_smallscale/Same_Elevation/meandist_40m/contrastbin_4/stimuli/Scene28_View8.jpg","",""
"null","","psychophysics","24","753521","0.0-24.0","","","","","","","","key","null","16.674000000000472","640","400","","","","","",""
"9860.390000001644","","image-slider-response","25","763387","0.0-25.0","","","","","","","","","","","","","50","Right","7","DotProbeStimuli_smallscale/Same_Elevation/meandist_20m/contrastbin_5/stimuli/Scene79_View5.jpg","",""
"null","","psychophysics","26","766080","0.0-26.0","","","","","","","","key","null","16.673999999999793","640","400","","","","","",""
"6832.890000005136","","image-slider-response","27","772917","0.0-27.0","","","","","","","","","","","","","40","Right","2","DotProbeStimuli_smallscale/Same_Elevation/meandist_40m/contrastbin_4/stimuli/Scene63_View18.jpg","",""
"null","","psychophysics","28","775701","0.0-28.0","","","","","","","","key","null","16.67400000000046","640","400","","","","","",""
"10207.590000005439","","image-slider-response","29","785914","0.0-29.0","","","","","","","","","","","","","70","Left","7","DotProbeStimuli_smallscale/Same_Elevation/meandist_10m/contrastbin_5/stimuli/Scene61_View17.jpg","",""
"null","","psychophysics","30","788643","0.0-30.0","","","","","","","","key","null","16.674000000000497","640","400","","","","","",""
"6991.235000008601","","image-slider-response","31","795638","0.0-31.0","","","","","","","","","","","","","40","Right","4","DotProbeStimuli_smallscale/Same_Elevation/meandist_10m/contrastbin_2/stimuli/Scene76_View11.jpg","",""
"null","","psychophysics","32","798312","0.0-32.0","","","","","","","","key","null","16.674000000000525","640","400","","","","","",""
"8627.395000003162","","image-slider-response","33","806943","0.0-33.0","","","","","","","","","","","","","29","Right","1","DotProbeStimuli_smallscale/Same_Elevation/meandist_40m/contrastbin_3/stimuli/Scene25_View10.jpg","",""
"null","","psychophysics","34","809727","0.0-34.0","","","","","","","","key","null","16.67523952095817","640","400","","","","","",""
"8068.474999992759","","image-slider-response","35","817801","0.0-35.0","","","","","","","","","","","","","40","Right","7","DotProbeStimuli_smallscale/Same_Elevation/meandist_20m/contrastbin_4/stimuli/Scene57_View17.jpg","",""
"null","","psychophysics","36","820585","0.0-36.0","","","","","","","","key","null","16.669443113772576","640","400","","","","","",""
"8920.45999999391","","image-slider-response","37","829509","0.0-37.0","","","","","","","","","","","","","10","Right","7","DotProbeStimuli_smallscale/Same_Elevation/meandist_10m/contrastbin_4/stimuli/Scene58_View2.jpg","",""
"null","","psychophysics","38","832438","0.0-38.0","","","","","","","","key","null","16.673999999999733","640","400","","","","","",""
"9425.92500000319","","image-slider-response","39","841868","0.0-39.0","","","","","","","","","","","","","90","Right","15","DotProbeStimuli_smallscale/Same_Elevation/meandist_10m/contrastbin_4/stimuli/Scene22_View1.jpg","",""
"null","","psychophysics","40","844598","0.0-40.0","","","","","","","","key","null","16.67399999999978","640","400","","","","","",""
"6135.900000008405","","image-slider-response","41","850741","0.0-41.0","","","","","","","","","","","","","36","Right","4","DotProbeStimuli_smallscale/Same_Elevation/meandist_20m/contrastbin_3/stimuli/Scene5_View15.jpg","",""
"null","","psychophysics","42","853670","0.0-42.0","","","","","","","","key","null","16.673999999999733","640","400","","","","","",""
"9258.004999996047","","image-slider-response","43","862933","0.0-43.0","","","","","","","","","","","","","11","Left","15","DotProbeStimuli_smallscale/Same_Elevation/meandist_40m/contrastbin_3/stimuli/Scene55_View2.jpg","",""
"null","","psychophysics","44","865862","0.0-44.0","","","","","","","","key","null","16.67399999999973","640","400","","","","","",""
"6267.644999999902","","image-slider-response","45","872136","0.0-45.0","","","","","","","","","","","","","70","Right","15","DotProbeStimuli_smallscale/Same_Elevation/meandist_20m/contrastbin_1/stimuli/Scene46_View2.jpg","",""
"null","","psychophysics","46","874830","0.0-46.0","","","","","","","","key","null","16.673999999999793","640","400","","","","","",""
"8865.555000011227","","image-slider-response","47","883699","0.0-47.0","","","","","","","","","","","","","51","Left","2","DotProbeStimuli_smallscale/Same_Elevation/meandist_20m/contrastbin_2/stimuli/Scene58_View11.jpg","",""
"null","","psychophysics","48","886373","0.0-48.0","","","","","","","","key","null","16.673999999999797","640","400","","","","","",""
"9091.595000005327","","image-slider-response","49","895469","0.0-49.0","","","","","","","","","","","","","42","Right","1","DotProbeStimuli_smallscale/Same_Elevation/meandist_20m/contrastbin_3/stimuli/Scene47_View1.jpg","",""
"null","","psychophysics","50","898256","0.0-50.0","","","","","","","","key","null","16.67400000000046","640","400","","","","","",""
"5562.535000004573","","image-slider-response","51","903821","0.0-51.0","","","","","","","","","","","","","19","Right","7","DotProbeStimuli_smallscale/Same_Elevation/meandist_40m/contrastbin_3/stimuli/Scene22_View8.jpg","",""
"39768.09499999217","","html-button-response","52","943592","0.0-52.0","","","","","","","","","","","","","","","","<div style=""color:white;"">You have completed 10% of the experiment<br><br> Take a short break and press continue when you are ready <br><br><b>Reminder:</b> Ensure you look at the central cross until you make a response. <br><br></div>","0",""
"null","","psychophysics","53","946266","0.0-53.0","","","","","","","","key","null","16.674000000000525","640","400","","","","","",""
"7196.140000000014","","image-slider-response","54","953467","0.0-54.0","","","","","","","","","","","","","50","Right","1","DotProbeStimuli_smallscale/Same_Elevation/meandist_20m/contrastbin_4/stimuli/Scene15_View4.jpg","",""
"null","","psychophysics","55","956141","0.0-55.0","","","","","","","","key","null","16.673999999999797","640","400","","","","","",""
"6753.790000002482","","image-slider-response","56","962898","0.0-56.0","","","","","","","","","","","","","34","Right","1","DotProbeStimuli_smallscale/Same_Elevation/meandist_20m/contrastbin_1/stimuli/Scene69_View4.jpg","",""
"null","","psychophysics","57","965628","0.0-57.0","","","","","","","","key","null","16.67399999999978","640","400","","","","","",""
"5184.959999998566","","image-slider-response","58","970820","0.0-58.0","","","","","","","","","","","","","42","Right","4","DotProbeStimuli_smallscale/Same_Elevation/meandist_10m/contrastbin_1/stimuli/Scene44_View1.jpg","",""
"null","","psychophysics","59","973515","0.0-59.0","","","","","","","","key","null","16.69254658385093","640","400","","","","","",""
"9324.814999999944","","image-slider-response","60","982847","0.0-60.0","","","","","","","","","","","","","22","Right","2","DotProbeStimuli_smallscale/Same_Elevation/meandist_20m/contrastbin_3/stimuli/Scene24_View11.jpg","",""
"null","","psychophysics","61","985522","0.0-61.0","","","","","","","","key","null","16.65719875776475","640","400","","","","","",""
"7962.104999998817","","image-slider-response","62","993490","0.0-62.0","","","","","","","","","","","","","61","Left","1","DotProbeStimuli_smallscale/Same_Elevation/meandist_40m/contrastbin_2/stimuli/Scene59_View10.jpg","",""
"null","","psychophysics","63","996165","0.0-63.0","","","","","","","","key","null","16.673999999999793","640","400","","","","","",""
"6015.670000008075","","image-slider-response","64","1002184","0.0-64.0","","","","","","","","","","","","","51","Left","1","DotProbeStimuli_smallscale/Same_Elevation/meandist_20m/contrastbin_4/stimuli/Scene80_View10.jpg","",""
"null","","psychophysics","65","1004969","0.0-65.0","","","","","","","","key","null","16.693215568862232","640","400","","","","","",""
"8201.195000001695","","image-slider-response","66","1013176","0.0-66.0","","","","","","","","","","","","","81","Right","7","DotProbeStimuli_smallscale/Same_Elevation/meandist_40m/contrastbin_2/stimuli/Scene75_View17.jpg","",""
"null","","psychophysics","67","1015906","0.0-67.0","","","","","","","","key","null","16.634652439025004","640","400","","","","","",""
"7286.330000002403","","image-slider-response","68","1023196","0.0-68.0","","","","","","","","","","","","","27","Right","4","DotProbeStimuli_smallscale/Same_Elevation/meandist_40m/contrastbin_5/stimuli/Scene2_View2.jpg","",""
"null","","psychophysics","69","1025871","0.0-69.0","","","","","","","","key","null","16.702525000000605","640","400","","","","","",""
"5269.475000008009","","image-slider-response","70","1031144","0.0-70.0","","","","","","","","","","","","","31","Right","1","DotProbeStimuli_smallscale/Same_Elevation/meandist_40m/contrastbin_4/stimuli/Scene40_View8.jpg","",""
"null","","psychophysics","71","1033876","0.0-71.0","","","","","","","","key","null","16.68544785276004","640","400","","","","","",""
"6671.530000007013","","image-slider-response","72","1040552","0.0-72.0","","","","","","","","","","","","","62","Right","4","DotProbeStimuli_smallscale/Same_Elevation/meandist_20m/contrastbin_2/stimuli/Scene66_View10.jpg","",""
"null","","psychophysics","73","1043245","0.0-73.0","","","","","","","","key","null","16.723695652174722","640","400","","","","","",""
"5730.074999999488","","image-slider-response","74","1048980","0.0-74.0","","","","","","","","","","","","","66","Right","2","DotProbeStimuli_smallscale/Same_Elevation/meandist_10m/contrastbin_1/stimuli/Scene29_View4.jpg","",""
"null","","psychophysics","75","1051710","0.0-75.0","","","","","","","","key","null","16.673999999999783","640","400","","","","","",""
"7642.699999996694","","image-slider-response","76","1059357","0.0-76.0","","","","","","","","","","","","","54","Right","4","DotProbeStimuli_smallscale/Same_Elevation/meandist_20m/contrastbin_1/stimuli/Scene8_View5.jpg","",""
"null","","psychophysics","77","1062087","0.0-77.0","","","","","","","","key","null","17.0908500000005","640","400","","","","","",""
"10856.165000004694","","image-slider-response","78","1072950","0.0-78.0","","","","","","","","","","","","","59","Left","4","DotProbeStimuli_smallscale/Same_Elevation/meandist_10m/contrastbin_2/stimuli/Scene64_View3.jpg","",""
"null","","psychophysics","79","1075680","0.0-79.0","","","","","","","","key","null","16.673999999999783","640","400","","","","","",""
"4812.83999999892","","image-slider-response","80","1080496","0.0-80.0","","","","","","","","","","","","","61","Right","4","DotProbeStimuli_smallscale/Same_Elevation/meandist_10m/contrastbin_4/stimuli/Scene61_View13.jpg","",""
"null","","psychophysics","81","1083190","0.0-81.0","","","","","","","","key","null","16.673999999999793","640","400","","","","","",""
"5895.189999995753","","image-slider-response","82","1089089","0.0-82.0","","","","","","","","","","","","","60","Left","2","DotProbeStimuli_smallscale/Same_Elevation/meandist_20m/contrastbin_5/stimuli/Scene73_View10.jpg","",""
"5505.270000008866","","html-button-response","83","1094596","0.0-83.0","","","","","","","","","","","","","","","","<div style=""color:white;"">You have completed 20% of the experiment<br><br> Take a short break and press continue when you are ready <br><br><b>Reminder:</b> Ensure you look at the central cross until you make a response. <br><br></div>","0",""
"null","","psychophysics","84","1097382","0.0-84.0","","","","","","","","key","null","16.673999999999765","640","400","","","","","",""
"9701.740000004182","","image-slider-response","85","1107090","0.0-85.0","","","","","","","","","","","","","29","Left","7","DotProbeStimuli_smallscale/Same_Elevation/meandist_10m/contrastbin_2/stimuli/Scene41_View8.jpg","",""
"null","","psychophysics","86","1109873","0.0-86.0","","","","","","","","key","null","18.81599324324319","640","400","","","","","",""
"6850.9200000118","","image-slider-response","87","1116730","0.0-87.0","","","","","","","","","","","","","59","Right","7","DotProbeStimuli_smallscale/Same_Elevation/meandist_20m/contrastbin_3/stimuli/Scene6_View17.jpg","",""
"null","","psychophysics","88","1119425","0.0-88.0","","","","","","","","key","null","16.883735849057857","640","400","","","","","",""
"6247.940000001108","","image-slider-response","89","1125678","0.0-89.0","","","","","","","","","","","","","71","Right","2","DotProbeStimuli_smallscale/Same_Elevation/meandist_10m/contrastbin_5/stimuli/Scene80_View7.jpg","",""
"null","","psychophysics","90","1128353","0.0-90.0","","","","","","","","key","null","16.67400000000124","640","400","","","","","",""
"4916.790000002831","","image-slider-response","91","1133273","0.0-91.0","","","","","","","","","","","","","72","Right","1","DotProbeStimuli_smallscale/Same_Elevation/meandist_10m/contrastbin_1/stimuli/Scene41_View6.jpg","",""
"null","","psychophysics","92","1136203","0.0-92.0","","","","","","","","key","null","16.673999999999733","640","400","","","","","",""
"9653.384999997681","","image-slider-response","93","1145861","0.0-93.0","","","","","","","","","","","","","10","Right","15","DotProbeStimuli_smallscale/Same_Elevation/meandist_40m/contrastbin_4/stimuli/Scene54_View5.jpg","",""
"null","","psychophysics","94","1148591","0.0-94.0","","","","","","","","key","null","16.67400000000049","640","400","","","","","",""
"13632.799999991897","","image-slider-response","95","1162227","0.0-95.0","","","","","","","","","","","","","65","Left","4","DotProbeStimuli_smallscale/Same_Elevation/meandist_20m/contrastbin_3/stimuli/Scene73_View9.jpg","",""
"null","","psychophysics","96","1165157","0.0-96.0","","","","","","","","key","null","16.673999999999733","640","400","","","","","",""
"7693.614999996498","","image-slider-response","97","1172856","0.0-97.0","","","","","","","","","","","","","15","Right","15","DotProbeStimuli_smallscale/Same_Elevation/meandist_20m/contrastbin_5/stimuli/Scene45_View6.jpg","",""
"null","","psychophysics","98","1175532","0.0-98.0","","","","","","","","key","null","16.674000000000525","640","400","","","","","",""
"6063.380000006873","","image-slider-response","99","1181600","0.0-99.0","","","","","","","","","","","","","56","Left","1","DotProbeStimuli_smallscale/Same_Elevation/meandist_10m/contrastbin_5/stimuli/Scene61_View16.jpg","",""
"null","","psychophysics","100","1184275","0.0-100.0","","","","","","","","key","null","16.673999999999793","640","400","","","","","",""
"10997.070000012172","","image-slider-response","101","1195278","0.0-101.0","","","","","","","","","","","","","70","Right","1","DotProbeStimuli_smallscale/Same_Elevation/meandist_10m/contrastbin_4/stimuli/Scene36_View7.jpg","",""
"null","","psychophysics","102","1197971","0.0-102.0","","","","","","","","key","null","16.673999999999793","640","400","","","","","",""
"4843.059999999357","","image-slider-response","103","1202819","0.0-103.0","","","","","","","","","","","","","29","Right","2","DotProbeStimuli_smallscale/Same_Elevation/meandist_40m/contrastbin_5/stimuli/Scene58_View11.jpg","",""
"null","","psychophysics","104","1205550","0.0-104.0","","","","","","","","key","null","16.673999999999783","640","400","","","","","",""
"5814.704999997048","","image-slider-response","105","1211368","0.0-105.0","","","","","","","","","","","","","83","Right","4","DotProbeStimuli_smallscale/Same_Elevation/meandist_40m/contrastbin_3/stimuli/Scene37_View3.jpg","",""
"null","","psychophysics","106","1214061","0.0-106.0","","","","","","","","key","null","16.673999999999793","640","400","","","","","",""
"8619.689999992494","","image-slider-response","107","1222684","0.0-107.0","","","","","","","","","","","","","56","Right","2","DotProbeStimuli_smallscale/Same_Elevation/meandist_20m/contrastbin_4/stimuli/Scene18_View6.jpg","",""
"null","","psychophysics","108","1225614","0.0-108.0","","","","","","","","key","null","16.86565517241285","640","400","","","","","",""
"4759.630000000354","","image-slider-response","109","1230377","0.0-109.0","","","","","","","","","","","","","30","Right","15","DotProbeStimuli_smallscale/Same_Elevation/meandist_40m/contrastbin_5/stimuli/Scene4_View9.jpg","",""
"null","","psychophysics","110","1233110","0.0-110.0","","","","","","","","key","null","16.637078787878888","640","400","","","","","",""
"6144.459999996005","","image-slider-response","111","1239259","0.0-111.0","","","","","","","","","","","","","24","Right","4","DotProbeStimuli_smallscale/Same_Elevation/meandist_40m/contrastbin_4/stimuli/Scene77_View6.jpg","",""
"null","","psychophysics","112","1241934","0.0-112.0","","","","","","","","key","null","16.656006249999336","640","400","","","","","",""
"5835.229999997187","","image-slider-response","113","1247774","0.0-113.0","","","","","","","","","","","","","78","Left","1","DotProbeStimuli_smallscale/Same_Elevation/meandist_40m/contrastbin_1/stimuli/Scene46_View18.jpg","",""
"44574.68499999959","","html-button-response","114","1292351","0.0-114.0","","","","","","","","","","","","","","","","<div style=""color:white;"">You have completed 30% of the experiment<br><br> Take a short break and press continue when you are ready <br><br><b>Reminder:</b> Ensure you look at the central cross until you make a response. <br><br></div>","0",""
"null","","psychophysics","115","1295082","0.0-115.0","","","","","","","","key","null","16.69774233128881","640","400","","","","","",""
"5059.885000009555","","image-slider-response","116","1300145","0.0-116.0","","","","","","","","","","","","","50","Left","4","DotProbeStimuli_smallscale/Same_Elevation/meandist_40m/contrastbin_2/stimuli/Scene4_View1.jpg","",""
"null","","psychophysics","117","1302929","0.0-117.0","","","","","","","","key","null","16.656143712575552","640","400","","","","","",""
"4324.355000004172","","image-slider-response","118","1307257","0.0-118.0","","","","","","","","","","","","","54","Right","7","DotProbeStimuli_smallscale/Same_Elevation/meandist_10m/contrastbin_3/stimuli/Scene31_View9.jpg","",""
"null","","psychophysics","119","1310040","0.0-119.0","","","","","","","","key","null","16.674000000000472","640","400","","","","","",""
"5411.8949999974575","","image-slider-response","120","1315458","0.0-120.0","","","","","","","","","","","","","10","Left","7","DotProbeStimuli_smallscale/Same_Elevation/meandist_40m/contrastbin_3/stimuli/Scene73_View10.jpg","",""
"null","","psychophysics","121","1318134","0.0-121.0","","","","","","","","key","null","16.674000000000525","640","400","","","","","",""
"5883.865000010701","","image-slider-response","122","1324024","0.0-122.0","","","","","","","","","","","","","50","Left","1","DotProbeStimuli_smallscale/Same_Elevation/meandist_10m/contrastbin_3/stimuli/Scene61_View9.jpg","",""
"null","","psychophysics","123","1326700","0.0-123.0","","","","","","","","key","null","16.673999999999793","640","400","","","","","",""
"5418.625000005588","","image-slider-response","124","1332123","0.0-124.0","","","","","","","","","","","","","45","Right","1","DotProbeStimuli_smallscale/Same_Elevation/meandist_40m/contrastbin_5/stimuli/Scene7_View13.jpg","",""
"null","","psychophysics","125","1334799","0.0-125.0","","","","","","","","key","null","16.66629374999902","640","400","","","","","",""
"10038.075000004144","","image-slider-response","126","1344844","0.0-126.0","","","","","","","","","","","","","34","Right","1","DotProbeStimuli_smallscale/Same_Elevation/meandist_20m/contrastbin_1/stimuli/Scene20_View7.jpg","",""
"null","","psychophysics","127","1347573","0.0-127.0","","","","","","","","key","null","16.67400000000049","640","400","","","","","",""
"4878.64500000421","","image-slider-response","128","1352456","0.0-128.0","","","","","","","","","","","","","28","Left","4","DotProbeStimuli_smallscale/Same_Elevation/meandist_20m/contrastbin_2/stimuli/Scene59_View5.jpg","",""
"null","","psychophysics","129","1355385","0.0-129.0","","","","","","","","key","null","16.68584571428597","640","400","","","","","",""
"6883.3900000026915","","image-slider-response","130","1362273","0.0-130.0","","","","","","","","","","","","","28","Left","15","DotProbeStimuli_smallscale/Same_Elevation/meandist_40m/contrastbin_3/stimuli/Scene47_View16.jpg","",""
"null","","psychophysics","131","1365204","0.0-131.0","","","","","","","","key","null","16.67295454545555","640","400","","","","","",""
"8395.75500000501","","image-slider-response","132","1373604","0.0-132.0","","","","","","","","","","","","","53","Right","15","DotProbeStimuli_smallscale/Same_Elevation/meandist_10m/contrastbin_2/stimuli/Scene78_View14.jpg","",""
"null","","psychophysics","133","1376297","0.0-133.0","","","","","","","","key","null","16.6399197530858","640","400","","","","","",""
"7705.829999991693","","image-slider-response","134","1384009","0.0-134.0","","","","","","","","","","","","","70","Left","2","DotProbeStimuli_smallscale/Same_Elevation/meandist_10m/contrastbin_3/stimuli/Scene55_View7.jpg","",""
"null","","psychophysics","135","1386703","0.0-135.0","","","","","","","","key","null","16.674000000000508","640","400","","","","","",""
"4550.514999995474","","image-slider-response","136","1391258","0.0-136.0","","","","","","","","","","","","","34","Right","2","DotProbeStimuli_smallscale/Same_Elevation/meandist_10m/contrastbin_4/stimuli/Scene38_View16.jpg","",""
"null","","psychophysics","137","1393932","0.0-137.0","","","","","","","","key","null","16.63732298136608","640","400","","","","","",""
"4647.375000000466","","image-slider-response","138","1398584","0.0-138.0","","","","","","","","","","","","","54","Right","1","DotProbeStimuli_smallscale/Same_Elevation/meandist_10m/contrastbin_4/stimuli/Scene15_View13.jpg","",""
"null","","psychophysics","139","1401515","0.0-139.0","","","","","","","","key","null","16.673999999999733","640","400","","","","","",""
"6727.549999995856","","image-slider-response","140","1408248","0.0-140.0","","","","","","","","","","","","","14","Right","15","DotProbeStimuli_smallscale/Same_Elevation/meandist_10m/contrastbin_5/stimuli/Scene2_View11.jpg","",""
"null","","psychophysics","141","1410977","0.0-141.0","","","","","","","","key","null","16.67399999999907","640","400","","","","","",""
"11219.540000005625","","image-slider-response","142","1422200","0.0-142.0","","","","","","","","","","","","","18","Left","4","DotProbeStimuli_smallscale/Same_Elevation/meandist_40m/contrastbin_3/stimuli/Scene70_View7.jpg","",""
"null","","psychophysics","143","1425131","0.0-143.0","","","","","","","","key","null","16.63543750000033","640","400","","","","","",""
"6687.655000001425","","image-slider-response","144","1431822","0.0-144.0","","","","","","","","","","","","","95","Right","15","DotProbeStimuli_smallscale/Same_Elevation/meandist_10m/contrastbin_1/stimuli/Scene56_View7.jpg","",""
"5909.930000008782","","html-button-response","145","1437734","0.0-145.0","","","","","","","","","","","","","","","","<div style=""color:white;"">You have completed 40% of the experiment<br><br> Take a short break and press continue when you are ready <br><br><b>Reminder:</b> Ensure you look at the central cross until you make a response. <br><br></div>","0",""
"null","","psychophysics","146","1440465","0.0-146.0","","","","","","","","key","null","16.6837743902437","640","400","","","","","",""
"6458.834999997634","","image-slider-response","147","1446931","0.0-147.0","","","","","","","","","","","","","31","Left","4","DotProbeStimuli_smallscale/Same_Elevation/meandist_40m/contrastbin_4/stimuli/Scene43_View12.jpg","",""
"null","","psychophysics","148","1449610","0.0-148.0","","","","","","","","key","null","16.663465838509133","640","400","","","","","",""
"5538.099999990547","","image-slider-response","149","1455153","0.0-149.0","","","","","","","","","","","","","32","Left","1","DotProbeStimuli_smallscale/Same_Elevation/meandist_20m/contrastbin_3/stimuli/Scene15_View6.jpg","",""
"null","","psychophysics","150","1457846","0.0-150.0","","","","","","","","key","null","16.714745341615046","640","400","","","","","",""
"6034.904999993043","","image-slider-response","151","1463885","0.0-151.0","","","","","","","","","","","","","72","Left","2","DotProbeStimuli_smallscale/Same_Elevation/meandist_40m/contrastbin_2/stimuli/Scene73_View15.jpg","",""
"null","","psychophysics","152","1466669","0.0-152.0","","","","","","","","key","null","16.673999999999765","640","400","","","","","",""
"7992.140000001993","","image-slider-response","153","1474665","0.0-153.0","","","","","","","","","","","","","18","Right","7","DotProbeStimuli_smallscale/Same_Elevation/meandist_40m/contrastbin_4/stimuli/Scene14_View18.jpg","",""
"null","","psychophysics","154","1477395","0.0-154.0","","","","","","","","key","null","16.67400000000049","640","400","","","","","",""
"5641.459999999031","","image-slider-response","155","1483041","0.0-155.0","","","","","","","","","","","","","60","Right","4","DotProbeStimuli_smallscale/Same_Elevation/meandist_10m/contrastbin_3/stimuli/Scene78_View6.jpg","",""
"null","","psychophysics","156","1485971","0.0-156.0","","","","","","","","key","null","16.67399999999907","640","400","","","","","",""
"5762.810000000289","","image-slider-response","157","1491737","0.0-157.0","","","","","","","","","","","","","82","Right","15","DotProbeStimuli_smallscale/Same_Elevation/meandist_20m/contrastbin_5/stimuli/Scene77_View18.jpg","",""
"null","","psychophysics","158","1494430","0.0-158.0","","","","","","","","key","null","16.674000000000508","640","400","","","","","",""
"4978.864999997197","","image-slider-response","159","1499412","0.0-159.0","","","","","","","","","","","","","31","Right","2","DotProbeStimuli_smallscale/Same_Elevation/meandist_10m/contrastbin_2/stimuli/Scene4_View1.jpg","",""
"null","","psychophysics","160","1502196","0.0-160.0","","","","","","","","key","null","16.696475903614402","640","400","","","","","",""
"4620.19500001031","","image-slider-response","161","1506820","0.0-161.0","","","","","","","","","","","","","11","Left","7","DotProbeStimuli_smallscale/Same_Elevation/meandist_20m/contrastbin_4/stimuli/Scene43_View14.jpg","",""
"null","","psychophysics","162","1509552","0.0-162.0","","","","","","","","key","null","16.67400000000121","640","400","","","","","",""
"4539.199999999255","","image-slider-response","163","1514096","0.0-163.0","","","","","","","","","","","","","38","Left","4","DotProbeStimuli_smallscale/Same_Elevation/meandist_10m/contrastbin_4/stimuli/Scene67_View13.jpg","",""
"null","","psychophysics","164","1516826","0.0-164.0","","","","","","","","key","null","16.67400000000121","640","400","","","","","",""
"4518.679999993881","","image-slider-response","165","1521348","0.0-165.0","","","","","","","","","","","","","59","Left","4","DotProbeStimuli_smallscale/Same_Elevation/meandist_40m/contrastbin_1/stimuli/Scene72_View2.jpg","",""
"null","","psychophysics","166","1524279","0.0-166.0","","","","","","","","key","null","16.67399999999907","640","400","","","","","",""
"4708.045000006678","","image-slider-response","167","1528991","0.0-167.0","","","","","","","","","","","","","82","Right","15","DotProbeStimuli_smallscale/Same_Elevation/meandist_40m/contrastbin_4/stimuli/Scene9_View11.jpg","",""
"null","","psychophysics","168","1531922","0.0-168.0","","","","","","","","key","null","16.64650568181903","640","400","","","","","",""
"4698.235000003362","","image-slider-response","169","1536626","0.0-169.0","","","","","","","","","","","","","71","Right","15","DotProbeStimuli_smallscale/Same_Elevation/meandist_20m/contrastbin_3/stimuli/Scene61_View15.jpg","",""
"null","","psychophysics","170","1539413","0.0-170.0","","","","","","","","key","null","16.673999999999765","640","400","","","","","",""
"10769.30999998888","","image-slider-response","171","1550189","0.0-171.0","","","","","","","","","","","","","28","Left","7","DotProbeStimuli_smallscale/Same_Elevation/meandist_10m/contrastbin_4/stimuli/Scene41_View14.jpg","",""
"null","","psychophysics","172","1552919","0.0-172.0","","","","","","","","key","null","16.696472392638896","640","400","","","","","",""
"7366.775000002235","","image-slider-response","173","1560290","0.0-173.0","","","","","","","","","","","","","20","Left","4","DotProbeStimuli_smallscale/Same_Elevation/meandist_20m/contrastbin_4/stimuli/Scene30_View8.jpg","",""
"null","","psychophysics","174","1563076","0.0-174.0","","","","","","","","key","null","16.66371856287434","640","400","","","","","",""
